Asteroid designations ( Number, Name, Temporary designation): 68359, -, 2001_OZ13
Observation was done on (UT) (format YYYY-MM-DD-hh): 2005 - 10 - 31 - 00:02
Observation was made by : Simone Ieva E-mail; simone.ieva@obspm.fr
At observatory with UAI code: 262
Obsv. comments: Ieva et al. (2013) in preparation
The spectrum was published in the article: http://www.oa-roma.inaf.it/planet/NEOSURFACE.html
The normalization of this spectrum was made for the wavelength: 0.550 microns.
Original name of the file was: 68359_2.txt
Wavelength[um]	Reflectance	sigma(optional)
0.4204 0.70276
0.4212 0.67850
0.4219 0.70276
0.4226 0.70276
0.4234 0.72662
0.4241 0.76450
0.4248 0.75153
0.4256 0.68361
0.4263 0.60037
0.4270 0.60450
0.4278 0.68361
0.4285 0.77167
0.4292 0.68334
0.4300 0.73862
0.4307 0.65543
0.4315 0.68334
0.4322 0.66740
0.4329 0.67990
0.4337 0.75526
0.4344 0.66139
0.4351 0.66596
0.4359 0.70660
0.4366 0.74296
0.4373 0.72547
0.4381 0.73294
0.4388 0.70074
0.4395 0.63843
0.4403 0.66391
0.4410 0.70074
0.4418 0.70998
0.4425 0.70065
0.4432 0.78535
0.4440 0.72749
0.4447 0.63811
0.4454 0.73881
0.4462 0.70998
0.4469 0.78093
0.4476 0.78571
0.4484 0.71784
0.4491 0.69397
0.4498 0.67676
0.4506 0.70202
0.4513 0.65107
0.4521 0.77515
0.4528 0.77061
0.4535 0.85178
0.4543 0.67063
0.4550 0.72919
0.4557 0.70353
0.4565 0.74782
0.4572 0.80074
0.4579 0.75946
0.4587 0.80462
0.4594 0.76262
0.4601 0.79668
0.4609 0.82677
0.4616 0.78097
0.4624 0.74486
0.4631 0.81344
0.4638 0.83076
0.4646 0.83729
0.4653 0.78991
0.4660 0.74531
0.4668 0.85513
0.4675 0.77926
0.4682 0.80327
0.4690 0.78686
0.4697 0.86387
0.4704 0.81677
0.4712 0.75197
0.4719 0.82980
0.4727 0.79521
0.4734 0.80726
0.4741 0.75894
0.4749 0.83152
0.4756 0.81452
0.4763 0.84562
0.4771 0.84109
0.4778 0.82202
0.4785 0.84562
0.4793 0.84562
0.4800 0.86389
0.4807 0.86389
0.4815 0.86389
0.4822 0.86389
0.4830 0.86389
0.4837 0.86389
0.4844 0.86957
0.4852 0.80769
0.4859 0.80961
0.4866 0.86389
0.4874 0.81713
0.4881 0.82612
0.4888 0.78920
0.4896 0.81820
0.4903 0.85022
0.4910 0.79606
0.4918 0.85430
0.4925 0.82482
0.4933 0.90132
0.4940 0.80461
0.4947 0.81223
0.4955 0.83935
0.4962 0.82651
0.4969 0.85690
0.4977 0.89228
0.4984 0.88096
0.4991 0.88803
0.4999 0.85533
0.5006 0.86420
0.5013 0.87882
0.5021 0.85805
0.5028 0.89509
0.5036 0.88352
0.5043 0.88305
0.5050 0.84140
0.5058 0.82670
0.5065 0.86548
0.5072 0.93171
0.5080 0.91100
0.5087 0.87225
0.5094 0.87130
0.5102 0.92601
0.5109 0.83210
0.5116 0.91851
0.5124 0.88632
0.5131 0.85959
0.5139 0.90150
0.5146 0.90849
0.5153 0.91912
0.5161 0.86232
0.5168 0.90741
0.5175 0.90389
0.5183 0.86931
0.5190 0.87402
0.5197 0.93585
0.5205 0.90936
0.5212 0.88903
0.5219 0.90116
0.5227 0.91441
0.5234 0.88366
0.5242 0.83019
0.5249 0.87350
0.5256 0.91464
0.5264 0.91365
0.5271 0.85613
0.5278 0.90464
0.5286 0.92577
0.5293 0.90251
0.5300 0.91182
0.5308 0.89880
0.5315 0.88992
0.5322 0.87352
0.5330 0.88808
0.5337 0.89858
0.5345 0.88088
0.5352 0.94509
0.5359 0.91008
0.5367 0.88119
0.5374 0.85965
0.5381 0.94975
0.5389 0.92808
0.5396 0.96146
0.5403 0.91825
0.5411 0.89607
0.5418 0.86944
0.5425 0.91674
0.5433 0.94624
0.5440 0.98478
0.5448 0.96165
0.5455 0.96786
0.5462 0.94746
0.5470 0.91938
0.5477 0.95870
0.5484 0.97667
0.5492 0.99029
0.5499 1.00000
0.5506 0.95784
0.5514 0.93735
0.5521 0.92155
0.5528 0.93115
0.5536 0.97367
0.5543 0.98692
0.5551 0.98564
0.5558 0.99165
0.5565 0.96708
0.5573 0.95129
0.5580 0.96414
0.5587 0.93957
0.5595 0.94953
0.5602 0.97025
0.5609 0.97024
0.5617 0.98813
0.5624 0.99717
0.5631 0.98916
0.5639 1.03535
0.5646 0.99330
0.5654 0.98854
0.5661 0.93819
0.5668 0.93112
0.5676 0.97166
0.5683 0.97219
0.5690 1.05568
0.5698 0.96787
0.5705 0.91639
0.5712 0.95787
0.5720 0.99856
0.5727 0.98094
0.5734 1.00676
0.5742 1.05413
0.5749 1.02439
0.5756 0.99856
0.5764 0.99310
0.5771 0.97864
0.5779 0.96783
0.5786 0.94227
0.5793 1.00177
0.5801 1.06941
0.5808 1.00644
0.5815 1.07809
0.5823 1.04590
0.5830 1.03094
0.5837 1.03390
0.5845 1.01706
0.5852 0.96096
0.5859 1.00494
0.5867 1.02110
0.5874 1.05142
0.5882 1.06196
0.5889 1.03740
0.5896 1.07547
0.5904 1.03283
0.5911 1.03283
0.5918 1.03740
0.5926 1.00493
0.5933 1.03283
0.5940 1.00939
0.5948 0.98914
0.5955 1.04839
0.5962 1.00440
0.5970 0.99478
0.5977 1.05098
0.5985 1.05089
0.5992 1.02408
0.5999 1.05659
0.6007 1.03867
0.6014 1.06481
0.6021 1.03341
0.6029 1.04495
0.6036 1.05071
0.6043 0.97917
0.6051 1.00275
0.6058 1.04401
0.6065 1.08221
0.6073 1.07693
0.6080 1.02450
0.6088 0.97525
0.6095 0.95998
0.6102 0.96057
0.6110 1.06081
0.6117 1.06849
0.6124 1.03734
0.6132 1.07493
0.6139 1.07668
0.6146 1.05191
0.6154 1.07158
0.6161 1.07550
0.6168 1.09836
0.6176 1.07004
0.6183 1.06478
0.6191 1.05897
0.6198 1.04728
0.6205 1.06701
0.6213 1.04772
0.6220 1.02379
0.6227 1.02324
0.6235 1.03397
0.6242 1.02907
0.6249 1.04054
0.6257 1.04817
0.6264 1.02773
0.6271 1.01871
0.6279 1.05295
0.6286 1.07417
0.6294 1.04144
0.6301 1.03111
0.6308 1.07294
0.6316 1.07542
0.6323 1.05674
0.6330 1.07891
0.6338 1.08783
0.6345 1.08682
0.6352 1.06766
0.6360 1.04104
0.6367 1.07026
0.6374 1.11163
0.6382 1.11470
0.6389 1.10757
0.6397 1.10758
0.6404 1.11689
0.6411 1.11179
0.6419 1.09179
0.6426 1.06100
0.6433 1.07354
0.6441 1.07980
0.6448 1.04908
0.6455 1.06029
0.6463 1.08893
0.6470 1.08893
0.6477 1.06549
0.6485 1.07189
0.6492 1.08893
0.6500 1.08439
0.6507 1.07551
0.6514 1.09130
0.6522 1.10764
0.6529 1.12892
0.6536 1.10627
0.6544 1.04458
0.6551 1.05395
0.6558 1.06133
0.6566 1.07181
0.6573 1.11733
0.6580 1.10851
0.6588 1.10094
0.6595 1.11645
0.6603 1.08789
0.6610 1.06305
0.6617 1.06599
0.6625 1.11863
0.6632 1.16095
0.6639 1.12374
0.6647 1.12935
0.6654 1.12179
0.6661 1.09545
0.6669 1.09162
0.6676 1.07531
0.6683 1.08870
0.6691 1.09457
0.6698 1.08800
0.6706 1.09835
0.6713 1.10992
0.6720 1.10076
0.6728 1.11580
0.6735 1.15934
0.6742 1.17278
0.6750 1.11850
0.6757 1.07574
0.6764 1.10337
0.6772 1.16609
0.6779 1.19767
0.6786 1.19405
0.6794 1.18860
0.6801 1.16625
0.6809 1.14073
0.6816 1.17067
0.6823 1.14618
0.6831 1.11374
0.6838 1.08097
0.6845 1.10696
0.6853 1.12581
0.6860 1.11952
0.6867 1.15727
0.6875 1.12667
0.6882 1.14230
0.6889 1.13181
0.6897 1.12461
0.6904 1.06204
0.6912 1.09421
0.6919 1.14189
0.6926 1.13677
0.6934 1.15681
0.6941 1.16875
0.6948 1.14546
0.6956 1.10600
0.6963 1.18750
0.6970 1.15883
0.6978 1.12702
0.6985 1.13955
0.6992 1.12981
0.7000 1.14391
0.7007 1.15960
0.7015 1.21941
0.7022 1.19991
0.7029 1.12522
0.7037 1.13738
0.7044 1.10316
0.7051 1.15061
0.7059 1.11308
0.7066 1.15131
0.7073 1.07560
0.7081 1.07714
0.7088 1.19813
0.7095 1.11148
0.7103 1.21842
0.7110 1.22724
0.7118 1.22397
0.7125 1.19871
0.7132 1.17859
0.7140 1.14334
0.7147 1.14855
0.7154 1.19255
0.7162 1.19989
0.7169 1.21396
0.7176 1.14588
0.7184 1.19872
0.7191 1.17295
0.7198 1.17129
0.7206 1.13735
0.7213 1.17079
0.7221 1.15244
0.7228 1.18138
0.7235 1.22902
0.7243 1.17735
0.7250 1.15627
0.7257 1.18790
0.7265 1.15077
0.7272 1.16574
0.7279 1.21655
0.7287 1.19479
0.7294 1.17997
0.7301 1.18436
0.7309 1.16142
0.7316 1.18074
0.7324 1.12528
0.7331 1.15179
0.7338 1.18788
0.7346 1.19408
0.7353 1.16840
0.7360 1.17879
0.7368 1.18320
0.7375 1.18604
0.7382 1.17718
0.7390 1.15939
0.7397 1.19694
0.7404 1.20436
0.7412 1.21375
0.7419 1.21971
0.7427 1.19441
0.7434 1.21267
0.7441 1.19863
0.7449 1.12832
0.7456 1.19441
0.7463 1.17002
0.7471 1.21725
0.7478 1.15072
0.7485 1.15292
0.7493 1.17476
0.7500 1.14334
0.7507 1.16788
0.7515 1.23929
0.7522 1.27975
0.7530 1.20614
0.7537 1.19045
0.7706 1.20789
0.7713 1.21115
0.7721 1.13898
0.7728 1.19045
0.7736 1.21386
0.7743 1.19631
0.7750 1.13203
0.7758 1.15651
0.7765 1.19045
0.7772 1.19045
0.7780 1.17436
0.7787 1.17388
0.7794 1.19631
0.7802 1.21386
0.7809 1.22840
0.7816 1.22840
0.7824 1.24866
0.7831 1.24866
0.7838 1.22840
0.7846 1.28393
0.7853 1.22840
0.7861 1.28399
0.7868 1.28730
0.7875 1.25500
0.7883 1.21970
0.7890 1.24866
0.7897 1.24473
0.7905 1.17896
0.7912 1.18383
0.7919 1.20058
0.7927 1.12644
0.7934 1.13378
0.7941 1.14055
0.7949 1.17154
0.7956 1.25207
0.7964 1.26934
0.7971 1.17667
0.7978 1.10939
0.7986 1.15509
0.7993 1.21806
0.8000 1.15615
0.8008 1.18560
0.8015 1.19576
0.8022 1.26493
0.8030 1.17667
0.8037 1.19121
0.8044 1.15383
0.8052 1.08402
0.8059 1.15007
0.8067 1.11745
0.8074 1.19027
0.8081 1.18936
0.8089 1.21080
0.8096 1.09618
0.8103 1.16268
0.8111 1.12603
0.8118 1.20539
0.8125 1.18899
0.8133 1.07851
0.8140 1.08987
0.8147 1.16274
0.8155 1.18635
0.8162 1.17132
0.8170 1.12466
0.8177 1.17202
0.8184 1.16777
0.8192 1.13398
0.8199 1.11788
0.8206 1.13996
0.8214 1.16871
0.8221 1.15394
0.8228 1.10070
0.8236 1.10519
0.8243 1.12778
0.8250 1.11655
0.8258 1.18485
0.8265 1.19423
0.8273 1.09122
0.8280 1.07052
0.8287 1.10310
0.8295 1.11255
0.8302 1.10806
0.8309 1.06754
0.8317 1.03347
0.8324 1.12328
0.8331 1.10975
0.8339 1.09930
0.8346 1.10547
0.8353 1.09846
0.8361 1.08228
0.8368 1.08955
0.8376 1.15340
0.8383 1.14953
0.8390 1.05777
0.8398 1.10929
0.8405 1.13070
0.8412 1.09886
0.8420 1.17258
0.8427 1.09731
0.8434 1.06944
0.8442 1.10697
0.8449 1.15588
0.8456 1.13052
0.8464 1.17733
0.8471 1.15791
0.8479 1.06963
0.8486 1.10845
0.8493 1.15904
0.8501 1.11315
0.8508 1.07341
0.8515 1.12173
0.8523 1.18112
0.8530 1.08155
0.8537 1.01768
0.8545 1.18142
0.8552 1.15800
0.8559 1.11567
0.8567 1.06484
0.8574 1.15085
0.8582 1.10145
0.8589 1.11082
0.8596 1.11822
0.8604 1.11082
0.8611 1.11082
0.8618 1.14021
0.8626 1.13882
0.8633 1.01760
0.8640 1.05533
0.8648 1.09523
0.8655 1.11244
0.8662 1.12312
0.8670 1.03806
0.8677 0.98702
0.8685 1.01160
0.8692 1.07333
0.8699 1.09771
0.8707 1.07437
0.8714 1.14397
0.8721 1.14618
0.8729 1.15464
0.8736 1.02372
0.8743 1.00382
0.8751 1.00582
0.8758 1.09173
0.8765 1.12217
0.8773 1.05719
0.8780 1.01814
0.8788 1.10608
0.8795 1.12133
0.8802 1.08075
0.8810 1.12527
0.8817 1.18460
0.8824 1.18371
0.8832 1.05210
0.8839 1.10608
0.8846 1.10608
0.8854 1.11576
0.8861 1.08075
0.8868 1.10184
0.8876 1.08075
0.8883 1.06203
0.8891 1.13365
0.8898 1.10184
0.8905 1.13162
0.8913 1.01503
0.8920 1.06203
0.8927 1.03550
0.8935 1.00464
0.8942 1.05528
0.8949 1.05346
0.8957 0.98382
0.8964 1.00613
0.8971 1.03449
0.8979 0.98318
0.8986 1.04565
0.8994 1.09241
0.9001 1.09205
0.9008 1.05528
0.9016 1.09359
0.9023 1.03006
0.9030 1.10635
0.9038 1.02563
0.9045 1.02350
0.9052 1.12534
0.9060 1.06955
0.9067 1.15474
0.9074 1.16013
0.9082 1.10654
0.9089 1.10253
0.9097 1.10654
0.9104 1.08649
0.9111 1.03430
0.9119 1.12560
0.9126 1.14827
0.9133 1.07243
0.9141 1.12806
0.9148 1.13785
0.9155 1.13800
0.9163 1.07243
0.9170 1.02627
0.9177 1.05795
0.9185 1.09593
0.9192 1.05086
0.9200 1.06316
0.9207 0.98076
0.9214 1.05372
0.9222 1.04873
0.9229 1.12855
0.9236 1.11957
0.9244 1.11393
0.9251 1.11743
0.9258 1.06807
0.9266 0.98448
0.9273 1.01164
0.9280 1.02012
0.9288 1.01268
0.9295 1.07050
0.9303 1.06744
0.9310 1.05883
0.9317 1.03507
0.9325 1.05644
0.9332 1.08497
0.9339 1.07388
0.9347 1.07164
0.9354 1.06279
0.9361 1.04432
0.9369 1.03695
0.9376 1.00029
0.9383 0.98949
0.9391 1.06203
0.9398 1.06110
