Asteroid designations ( Number, Name, Temporary designation): 25916, 2001 CP44, 1973_GM
Observation was done on (UT) (format YYYY-MM-DD-hh): 2006 - 10 - 26 - 00:00
Observation was made by : Simone Ieva E-mail; simone.ieva@obspm.fr
At observatory with UAI code: 262
Obsv. comments: Ieva et al. (2013) in preparation
The spectrum was published in the article: http://www.oa-roma.inaf.it/planet/NEOSURFACE.html
The normalization of this spectrum was made for the wavelength: 0.550 microns.
Original name of the file was: CP44.txt
Wavelength[um]	Reflectance	sigma(optional)
0.4001 0.83334
0.4009 0.79116
0.4016 0.86332
0.4023 0.83401
0.4031 0.78543
0.4038 0.83401
0.4045 0.83324
0.4053 0.83324
0.4060 0.85385
0.4067 0.83334
0.4075 0.80922
0.4082 0.83334
0.4089 0.82564
0.4097 0.87990
0.4104 0.83334
0.4111 0.83334
0.4119 0.87812
0.4126 0.83324
0.4133 0.85834
0.4141 0.88148
0.4148 0.82851
0.4155 0.83324
0.4163 0.83324
0.4170 0.82851
0.4178 0.83324
0.4185 0.80100
0.4192 0.83838
0.4200 0.80562
0.4207 0.80562
0.4214 0.80271
0.4222 0.77476
0.4229 0.77215
0.4236 0.78916
0.4244 0.80191
0.4251 0.82206
0.4258 0.80376
0.4266 0.80271
0.4273 0.78256
0.4280 0.79935
0.4288 0.80376
0.4295 0.77555
0.4302 0.80271
0.4310 0.80376
0.4317 0.80554
0.4324 0.85780
0.4332 0.85436
0.4339 0.84787
0.4346 0.84787
0.4354 0.88439
0.4361 0.85745
0.4368 0.86371
0.4376 0.86783
0.4383 0.88143
0.4390 0.88143
0.4398 0.92574
0.4405 0.86783
0.4412 0.86371
0.4420 0.83454
0.4427 0.89781
0.4434 0.86783
0.4442 0.93227
0.4449 0.90572
0.4456 0.88903
0.4464 0.89241
0.4471 0.88038
0.4478 0.90081
0.4486 0.85338
0.4493 0.89964
0.4500 0.90900
0.4508 0.89972
0.4515 0.87218
0.4522 0.89241
0.4530 0.86881
0.4537 0.88080
0.4544 0.89110
0.4552 0.91415
0.4559 0.90415
0.4566 0.91128
0.4574 0.87336
0.4581 0.89125
0.4588 0.91235
0.4596 0.88422
0.4603 0.88080
0.4610 0.91492
0.4618 0.85934
0.4625 0.86991
0.4632 0.89125
0.4640 0.89125
0.4647 0.87492
0.4654 0.88508
0.4662 0.88589
0.4669 0.87212
0.4676 0.86327
0.4684 0.89627
0.4691 0.91306
0.4698 0.90293
0.4706 0.89692
0.4713 0.92093
0.4720 0.91144
0.4728 0.89370
0.4735 0.88197
0.4742 0.94503
0.4750 0.89765
0.4757 0.90535
0.4764 0.91082
0.4772 0.94506
0.4779 0.91673
0.4787 0.91893
0.4794 0.85902
0.4801 0.93127
0.4809 0.89341
0.4816 0.87380
0.4823 0.88950
0.4831 0.90553
0.4838 0.91154
0.4845 0.88211
0.4853 0.87067
0.4860 0.91371
0.4867 0.92407
0.4875 0.90956
0.4882 0.91154
0.4889 0.95817
0.4897 0.94700
0.4904 0.91371
0.4911 0.90956
0.4919 0.90376
0.4926 0.91501
0.4933 0.94503
0.4941 0.95617
0.4948 0.92115
0.4955 0.90227
0.4963 0.94924
0.4970 0.90044
0.4977 0.93241
0.4985 0.94432
0.4992 0.92984
0.4999 0.89202
0.5007 0.91678
0.5014 0.92939
0.5021 0.91720
0.5029 0.91197
0.5036 0.96081
0.5043 0.95795
0.5051 0.97989
0.5058 0.93107
0.5065 0.93107
0.5073 0.89093
0.5080 0.92038
0.5087 0.94617
0.5095 0.96356
0.5102 0.95957
0.5109 0.96488
0.5117 0.96976
0.5124 0.94090
0.5131 0.92339
0.5139 0.92589
0.5146 0.93126
0.5153 0.92590
0.5161 0.95988
0.5168 0.96119
0.5175 0.96798
0.5183 0.97719
0.5190 0.97856
0.5197 0.95988
0.5205 0.97112
0.5212 1.00725
0.5219 0.95718
0.5227 0.97544
0.5234 0.96119
0.5241 1.01908
0.5249 0.99159
0.5256 0.94008
0.5263 0.92976
0.5271 0.95588
0.5278 1.01189
0.5285 1.02808
0.5293 0.96369
0.5300 0.97856
0.5307 1.00538
0.5315 1.02971
0.5322 0.95571
0.5329 0.94862
0.5337 1.02090
0.5344 0.98058
0.5351 1.00872
0.5359 1.00622
0.5366 1.00627
0.5373 0.97457
0.5381 0.98058
0.5388 0.99999
0.5395 0.95337
0.5403 0.97027
0.5410 0.98322
0.5417 0.96770
0.5425 0.98794
0.5432 1.00012
0.5440 0.97730
0.5447 1.00431
0.5454 1.02021
0.5462 0.97917
0.5469 1.00716
0.5476 1.02156
0.5484 1.01505
0.5491 0.98317
0.5498 1.00000
0.5506 1.01908
0.5513 0.99884
0.5520 1.02819
0.5528 0.99497
0.5535 1.01459
0.5542 1.05254
0.5550 1.02285
0.5557 0.98786
0.5564 0.99692
0.5572 0.98383
0.5579 0.97571
0.5586 0.99754
0.5594 0.98061
0.5601 1.02720
0.5608 1.01560
0.5616 1.06027
0.5623 1.02211
0.5630 1.01139
0.5638 1.04374
0.5645 1.08092
0.5652 1.05301
0.5660 1.02348
0.5667 1.03057
0.5674 1.01719
0.5682 1.01560
0.5689 1.00645
0.5696 1.00228
0.5704 1.06350
0.5711 1.06184
0.5718 1.05187
0.5726 1.04499
0.5733 0.98335
0.5740 1.01039
0.5748 1.01130
0.5755 1.05262
0.5762 1.04529
0.5770 1.04982
0.5777 1.04316
0.5784 1.05796
0.5792 1.05556
0.5799 1.06254
0.5806 1.03169
0.5814 1.06629
0.5821 1.05904
0.5828 1.04295
0.5836 1.01101
0.5843 1.02183
0.5850 1.04504
0.5858 1.04656
0.5865 1.05765
0.5872 1.03051
0.5880 1.02055
0.5887 1.03588
0.5894 1.05602
0.5902 1.03828
0.5909 1.04252
0.5916 1.04950
0.5924 1.04063
0.5931 1.05505
0.5938 1.06118
0.5946 1.06089
0.5953 1.07195
0.5960 1.06193
0.5968 1.06402
0.5975 1.06855
0.5982 1.02997
0.5990 1.03747
0.5997 1.07500
0.6004 1.08502
0.6012 1.07389
0.6019 1.04406
0.6026 1.04757
0.6034 1.07206
0.6041 1.06774
0.6048 1.06694
0.6056 1.09084
0.6063 1.09236
0.6071 1.09365
0.6078 1.06186
0.6085 1.05782
0.6093 1.08445
0.6100 1.09050
0.6107 1.08150
0.6115 1.05156
0.6122 1.05703
0.6129 1.05820
0.6137 1.08002
0.6144 1.09490
0.6151 1.08640
0.6159 1.05684
0.6166 1.05458
0.6173 1.06518
0.6181 1.05461
0.6188 1.07523
0.6195 1.08680
0.6203 1.08714
0.6210 1.08243
0.6217 1.06997
0.6225 1.03554
0.6232 1.04438
0.6239 1.07300
0.6247 1.06850
0.6254 1.05365
0.6261 1.05445
0.6269 1.06839
0.6276 1.09636
0.6283 1.11316
0.6291 1.08405
0.6298 1.07667
0.6305 1.04767
0.6313 1.06256
0.6320 1.10681
0.6327 1.09256
0.6335 1.04492
0.6342 1.06205
0.6349 1.10801
0.6357 1.10996
0.6364 1.10700
0.6371 1.10390
0.6379 1.11227
0.6386 1.10315
0.6393 1.07769
0.6401 1.09570
0.6408 1.10144
0.6415 1.11203
0.6423 1.09487
0.6430 1.07966
0.6437 1.09118
0.6445 1.07651
0.6452 1.06258
0.6459 1.07470
0.6467 1.06857
0.6474 1.08714
0.6481 1.07892
0.6489 1.10200
0.6496 1.11895
0.6503 1.10846
0.6511 1.09650
0.6518 1.09384
0.6525 1.08765
0.6533 1.09074
0.6540 1.06688
0.6547 1.08108
0.6555 1.06545
0.6562 1.11412
0.6569 1.11705
0.6577 1.11028
0.6584 1.12597
0.6591 1.10013
0.6599 1.09884
0.6606 1.12198
0.6613 1.11847
0.6621 1.10425
0.6628 1.09567
0.6635 1.10710
0.6643 1.13238
0.6650 1.10042
0.6657 1.07471
0.6665 1.07821
0.6672 1.07661
0.6680 1.08828
0.6687 1.10111
0.6694 1.13562
0.6702 1.11649
0.6709 1.11270
0.6716 1.09463
0.6724 1.06926
0.6731 1.10341
0.6738 1.12756
0.6746 1.12186
0.6753 1.11648
0.6760 1.11688
0.6768 1.12963
0.6775 1.11620
0.6782 1.09618
0.6790 1.13761
0.6797 1.14689
0.6804 1.10472
0.6812 1.10915
0.6819 1.10020
0.6826 1.06500
0.6834 1.09287
0.6841 1.12671
0.6848 1.09944
0.6856 1.06664
0.6863 1.08419
0.6870 1.14140
0.6878 1.14761
0.6885 1.11869
0.6892 1.12991
0.6900 1.15574
0.6907 1.14938
0.6914 1.12322
0.6922 1.11805
0.6929 1.12637
0.6936 1.11573
0.6944 1.16020
0.6951 1.12350
0.6958 1.11820
0.6966 1.13588
0.6973 1.10437
0.6980 1.12076
0.6988 1.14077
0.6995 1.12294
0.7002 1.10920
0.7010 1.14181
0.7017 1.14031
0.7024 1.12100
0.7032 1.14477
0.7039 1.11832
0.7046 1.13049
0.7054 1.12566
0.7061 1.14279
0.7068 1.12441
0.7076 1.13701
0.7083 1.11421
0.7090 1.11112
0.7098 1.14554
0.7105 1.14557
0.7112 1.12040
0.7120 1.13415
0.7127 1.08137
0.7134 1.10609
0.7142 1.14495
0.7149 1.14946
0.7156 1.13936
0.7164 1.08869
0.7171 1.12491
0.7178 1.10406
0.7186 1.15477
0.7193 1.13882
0.7200 1.13415
0.7208 1.14352
0.7215 1.15670
0.7222 1.13306
0.7230 1.13882
0.7237 1.13242
0.7244 1.11126
0.7252 1.14258
0.7259 1.15815
0.7266 1.14938
0.7274 1.13609
0.7281 1.11977
0.7288 1.14853
0.7296 1.14152
0.7303 1.13063
0.7310 1.09760
0.7318 1.11734
0.7325 1.15788
0.7332 1.17057
0.7340 1.19577
0.7347 1.14168
0.7355 1.09476
0.7362 1.14202
0.7369 1.18362
0.7377 1.17940
0.7384 1.15581
0.7391 1.14149
0.7399 1.16525
0.7406 1.16626
0.7413 1.13982
0.7421 1.12510
0.7428 1.14603
0.7435 1.14156
0.7443 1.12820
0.7450 1.11549
0.7457 1.12710
0.7465 1.15214
0.7472 1.13017
0.7479 1.13419
0.7487 1.14426
0.7494 1.09792
0.7501 1.11131
0.7509 1.15915
0.7516 1.15848
0.7523 1.14405
0.7531 1.13063
0.7538 1.15375
0.7545 1.15239
0.7553 1.13121
0.7560 1.11156
0.7567 1.11009
0.7575 1.09531
0.7582 1.15375
0.7589 1.15848
0.7597 1.11317
0.7604 1.14405
0.7611 1.13728
0.7619 1.13728
0.7626 1.13252
0.7633 1.13121
0.7641 1.12740
0.7648 1.12740
0.7655 1.18153
0.7663 1.13252
0.7670 1.16984
0.7677 1.13728
0.7685 1.12537
0.7692 1.14149
0.7699 1.13252
0.7707 1.11062
0.7714 1.09332
0.7721 1.12740
0.7729 1.11163
0.7736 1.08979
0.7743 1.14149
0.7751 1.14161
0.7758 1.10534
0.7765 1.13862
0.7773 1.11287
0.7780 1.10645
0.7787 1.08898
0.7795 1.12049
0.7802 1.10768
0.7809 1.12333
0.7817 1.09307
0.7824 1.12760
0.7831 1.16158
0.7839 1.11287
0.7846 1.13480
0.7853 1.16421
0.7861 1.11646
0.7868 1.09888
0.7875 1.12018
0.7883 1.17088
0.7890 1.16772
0.7897 1.10478
0.7905 1.08394
0.7912 1.10982
0.7919 1.11854
0.7927 1.12179
0.7934 1.11684
0.7941 1.12511
0.7949 1.15279
0.7956 1.12107
0.7963 1.09679
0.7971 1.12693
0.7978 1.14172
0.7986 1.12021
0.7993 1.14011
0.8000 1.13754
0.8008 1.14433
0.8015 1.12519
0.8022 1.09350
0.8030 1.10876
0.8037 1.12932
0.8044 1.11985
0.8052 1.11022
0.8059 1.09041
0.8066 1.10979
0.8074 1.13596
0.8081 1.09961
0.8088 1.14121
0.8096 1.13624
0.8103 1.11093
0.8110 1.13417
0.8118 1.10691
0.8125 1.08451
0.8132 1.10694
0.8140 1.12609
0.8147 1.09896
0.8154 1.09961
0.8162 1.09896
0.8169 1.07693
0.8176 1.07211
0.8184 1.07562
0.8191 1.09828
0.8198 1.09146
0.8206 1.06666
0.8213 1.09699
0.8220 1.12099
0.8228 1.08382
0.8235 1.14882
0.8242 1.09562
0.8250 1.06357
0.8257 1.09576
0.8264 1.11839
0.8272 1.10210
0.8279 1.10156
0.8286 1.09639
0.8294 1.04823
0.8301 1.04455
0.8308 1.07491
0.8316 1.08227
0.8323 1.08560
0.8330 1.10441
0.8338 1.12448
0.8345 1.11034
0.8352 1.07684
0.8360 1.07461
0.8367 1.07461
0.8374 1.07313
0.8382 1.02561
0.8389 1.07461
0.8396 1.06385
0.8404 1.06385
0.8411 1.04756
0.8418 1.10993
0.8426 1.07313
0.8433 1.05099
0.8440 1.05760
0.8448 1.00555
0.8455 1.01045
0.8462 1.05760
0.8470 1.03770
0.8477 1.06278
0.8484 1.07917
0.8492 1.05760
0.8499 1.06522
0.8506 1.10284
0.8514 1.09092
0.8521 1.01851
0.8528 1.03837
0.8536 1.02486
0.8543 1.07295
0.8550 1.08228
0.8558 1.06851
0.8565 1.05374
0.8572 1.03219
0.8580 1.04523
0.8587 1.03702
0.8595 1.05613
0.8602 1.10955
0.8609 1.12041
0.8617 1.10080
0.8624 1.06224
0.8631 1.05888
0.8639 1.06352
0.8646 1.04676
0.8653 1.09276
0.8661 1.08170
0.8668 1.04775
0.8675 1.06475
0.8683 1.09126
0.8690 1.09505
0.8697 1.08716
0.8705 1.06445
0.8712 1.07229
0.8719 1.05259
0.8727 1.06024
0.8734 1.09572
0.8741 1.05646
0.8749 1.06843
0.8756 1.05646
0.8763 1.06024
0.8771 0.99717
0.8778 1.05259
0.8785 1.03773
0.8793 1.03773
0.8800 1.03770
0.8807 0.98154
0.8815 1.03773
0.8822 1.01690
0.8829 1.03773
0.8837 1.03773
0.8844 1.06790
0.8851 1.09317
0.8859 1.00778
0.8866 1.03660
0.8873 1.04609
0.8881 1.04816
0.8888 1.10981
0.8895 1.07845
0.8903 1.04816
0.8910 1.07845
0.8917 1.05142
0.8925 1.03641
0.8932 1.08118
0.8939 1.05142
0.8947 1.05425
0.8954 1.11222
0.8961 1.08305
0.8969 1.03993
0.8976 1.05425
0.8983 1.08025
0.8991 1.06166
0.8998 0.99585
0.9005 1.01390
0.9013 1.02321
0.9020 1.07747
0.9027 1.09734
0.9035 1.04161
0.9042 1.06543
0.9049 1.01033
0.9057 1.06166
0.9064 1.10545
0.9071 1.04342
0.9079 1.03107
0.9086 1.04030
0.9093 1.07111
0.9101 1.04253
0.9108 1.04856
0.9115 1.06866
0.9123 1.03334
0.9130 1.04856
0.9137 1.04687
0.9145 1.08630
0.9152 1.06057
0.9159 1.01782
0.9167 1.02242
0.9174 1.09193
0.9181 1.04919
0.9189 1.05620
0.9196 1.04356
0.9203 1.03157
0.9211 1.07501
0.9218 1.04865
0.9226 1.05113
0.9233 1.05818
0.9240 1.03623
0.9248 1.04754
0.9255 1.00811
0.9262 0.99692
0.9270 1.04755
0.9277 1.00820
0.9284 1.03623
0.9292 0.99366
0.9299 1.05112
0.9306 1.04816
0.9314 1.03623
0.9321 1.03092
0.9328 1.06493
0.9336 1.04202
0.9343 1.04755
0.9350 1.04816
0.9358 0.98992
0.9365 1.03092
0.9372 1.05112
0.9380 1.05112
0.9385 1.00431
0.9391 0.96368
0.9398 0.93630
0.9404 1.00431
0.9411 0.99776
0.9417 0.99776
0.9424 0.98823
0.9431 0.99723
0.9437 0.99723
0.9444 1.00739
0.9450 1.07351
0.9457 1.03754
0.9463 1.01167
0.9470 0.98823
0.9476 0.98998
0.9483 1.01185
0.9490 0.98756
0.9496 0.94613
0.9503 1.07695
0.9509 1.06272
0.9516 0.98823
0.9522 1.00431
0.9529 0.98823
0.9536 0.98823
0.9542 0.98823
0.9549 0.99776
0.9555 1.07346
0.9562 0.98823
0.9568 1.08370
0.9575 0.94071
0.9582 0.99723
0.9588 0.96735
0.9595 0.99776
0.9601 0.98998
0.9608 0.98574
0.9614 0.99776
0.9621 1.00103
0.9627 1.00431
0.9634 0.90433
0.9641 1.04788
0.9647 1.00431
0.9654 1.06189
0.9660 1.00103
0.9667 0.92224
0.9673 0.99776
0.9680 0.99446
0.9687 0.91119
0.9693 1.00532
0.9700 1.00532
0.9706 1.00532
0.9713 1.00532
0.9719 1.00800
0.9726 1.06679
0.9732 1.04069
0.9739 1.09064
0.9746 1.00103
0.9752 0.98178
0.9759 1.01412
0.9765 1.05342
0.9772 1.02355
0.9778 0.92006
0.9785 1.00103
0.9792 1.00103
0.9798 0.97149
0.9805 1.00103
0.9811 0.97449
0.9818 1.01425
0.9824 1.01122
0.9831 1.04049
0.9838 1.04432
0.9844 1.03166
0.9851 0.96465
0.9857 1.00246
0.9864 0.93649
0.9870 1.00572
0.9877 1.06756
0.9883 1.07848
0.9890 1.00861
0.9897 1.00246
0.9903 1.00527
0.9910 0.95172
0.9916 0.95346
0.9923 0.96559
0.9929 0.97219
0.9936 1.00103
0.9943 1.06021
0.9949 0.99156
0.9956 1.00040
0.9962 0.98566
0.9969 1.02642
0.9975 1.06030
0.9982 0.91090
0.9988 1.03131
0.9995 0.94735
1.0002 0.91375
1.0008 0.97449
1.0015 0.93850
1.0021 0.97219
1.0028 0.97219
1.0034 1.03223
1.0041 1.00527
1.0048 0.96717
1.0054 0.98829
1.0061 1.06413
1.0067 1.07889
1.0074 0.90950
1.0080 0.94828
1.0087 0.94802
1.0093 0.92784
1.0100 0.91145
1.0107 0.98077
1.0113 1.07183
1.0120 0.95803
1.0126 1.03163
1.0133 0.89932
1.0139 0.89485
1.0146 0.98829
1.0153 1.00040
1.0159 0.98566
1.0166 0.98077
1.0172 0.97799
1.0179 0.96717
1.0185 0.97799
1.0192 0.97799
1.0198 0.95573
1.0205 0.99096
1.0212 0.98829
1.0218 1.06661
1.0225 1.04804
1.0231 1.01599
1.0238 0.98829
1.0245 0.98077
1.0251 0.99267
1.0258 1.03427
1.0264 0.99247
1.0271 0.98829
1.0277 1.03723
1.0284 0.96505
1.0290 0.98077
1.0297 0.96342
1.0304 1.01444
1.0310 1.06530
1.0317 0.99104
1.0323 0.99104
1.0330 1.06522
1.0336 0.93194
1.0343 0.90610
1.0350 0.95918
1.0356 0.95501
1.0363 0.94028
1.0369 0.97799
1.0376 1.01401
1.0382 1.05334
1.0389 1.02188
1.0395 1.03954
1.0402 1.05097
1.0409 0.99104
1.0415 0.92706
1.0422 1.03685
1.0428 1.01481
1.0435 1.07341
1.0441 0.94205
1.0448 0.97032
1.0454 1.01401
1.0461 0.99214
1.0468 0.99110
1.0474 1.05371
1.0481 1.00202
1.0487 0.96222
1.0494 0.99214
1.0500 1.02955
1.0507 0.91079
1.0514 0.98813
1.0520 0.92188
1.0527 0.99104
1.0533 0.99110
1.0540 1.02347
1.0546 0.99506
1.0553 0.99214
1.0559 0.99214
1.0566 1.04802
1.0573 1.02352
1.0579 1.05469
1.0586 0.97681
1.0592 1.00202
1.0599 0.97629
1.0606 1.08409
1.0612 0.94751
1.0619 0.99110
1.0625 0.93361
1.0632 0.92274
1.0638 1.01302
1.0645 1.01302
1.0651 0.95659
1.0658 1.07659
1.0665 1.06846
1.0671 0.95718
1.0678 1.02347
1.0684 0.99908
1.0691 1.03663
1.0697 1.06431
1.0704 1.02352
1.0711 0.94318
1.0717 1.04658
1.0724 1.01302
1.0730 1.00527
1.0737 0.99506
1.0743 1.10128
1.0750 0.98898
1.0756 0.98524
1.0763 1.08971
1.0770 1.09822
1.0776 1.00527
1.0783 1.00527
1.0789 1.11122
1.0796 0.99634
1.0802 1.11225
1.0809 1.01796
1.0816 1.03768
1.0822 1.03032
1.0829 1.09987
1.0835 1.05951
1.0842 0.99781
1.0848 1.10385
1.0855 1.07547
1.0861 0.96415
1.0868 1.04141
1.0875 1.06707
1.0881 1.05964
1.0888 1.03964
1.0894 0.98508
1.0901 0.95129
1.0907 0.96818
1.0914 0.98716
1.0921 0.95691
1.0927 1.06131
1.0934 1.00462
1.0940 1.08715
1.0947 1.08555
1.0953 1.03629
1.0960 1.08031
1.0966 1.08031
1.0973 1.01796
1.0980 1.07566
1.0986 1.08100
1.0993 1.08582
1.0999 1.04787
1.1006 1.03196
1.1013 1.07566
1.1019 1.08031
1.1026 1.08100
1.1032 1.06131
1.1039 1.15054
1.1045 1.13522
1.1052 1.14862
1.1058 1.07566
1.1065 1.08031
1.1072 1.10803
1.1078 1.00223
1.1085 1.08257
1.1091 1.12930
1.1098 1.16997
1.1104 1.08100
1.1111 1.16914
1.1118 1.17340
1.1124 1.08100
1.1131 1.17487
1.1137 1.08555
1.1144 1.08555
1.1150 1.08582
1.1157 1.14239
1.1163 1.09668
1.1170 1.14496
1.1177 1.12644
1.1183 1.09548
1.1190 1.12011
1.1196 1.04497
1.1203 1.04027
1.1209 1.14517
1.1216 1.22210
1.1222 1.12644
1.1229 1.17978
1.1236 1.16158
1.1242 1.13510
1.1249 1.12930
1.1255 1.03469
1.1262 1.13510
1.1268 1.14239
1.1275 1.04533
1.1282 1.09668
1.1288 1.14517
1.1295 1.14517
1.1301 1.14496
1.1308 1.14239
1.1314 1.13510
1.1321 1.12644
1.1327 1.09548
1.1334 1.10926
1.1341 1.09761
1.1347 1.09761
1.1354 1.09668
1.1360 1.09601
1.1367 1.09601
1.1374 1.09548
1.1380 1.09548
1.1387 1.09548
1.1393 1.17049
1.1400 1.00450
1.1406 1.13510
1.1413 1.07600
1.1419 1.06758
1.1426 1.06638
1.1433 1.05008
1.1439 1.09761
1.1446 1.06758
1.1452 1.17204
1.1459 1.06758
1.1465 1.07600
1.1472 1.07600
1.1479 1.16602
1.1485 1.09601
1.1492 0.99345
1.1498 1.04546
1.1505 1.07600
1.1511 1.07782
1.1518 1.10926
1.1524 1.06638
1.1531 1.15713
1.1538 1.08692
1.1544 1.14139
1.1551 1.09761
1.1557 1.09761
1.1564 0.98890
1.1570 1.04286
1.1577 1.15600
1.1583 1.09601
1.1590 1.09761
1.1597 1.05008
1.1603 1.03810
1.1610 1.00161
1.1616 1.04135
1.1623 1.02173
1.1629 1.04015
1.1636 1.03316
1.1643 1.14725
1.1649 1.17885
1.1656 1.16911
1.1662 1.14739
1.1669 1.04794
1.1675 1.04911
1.1682 1.07800
1.1689 1.04671
1.1695 1.13316
1.1702 1.17981
1.1708 1.15850
1.1715 1.11460
1.1721 1.13269
1.1728 1.16554
1.1735 1.09353
1.1741 1.06435
1.1748 1.05409
1.1754 1.06435
1.1761 1.03722
1.1767 0.99419
1.1774 1.08650
1.1780 1.11120
1.1787 1.09449
1.1794 1.06435
1.1800 1.05409
1.1807 1.03934
1.1813 1.11207
1.1820 1.17160
1.1826 1.16583
1.1833 1.19139
1.1840 1.15285
1.1846 1.07115
1.1853 1.07295
1.1859 1.04032
1.1866 1.03343
1.1872 1.08650
1.1879 1.00283
1.1886 1.11120
1.1892 1.01015
1.1899 1.11848
1.1905 1.05039
1.1912 1.11120
1.1918 1.11120
1.1925 1.05259
1.1931 1.13361
1.1938 1.15119
1.1945 1.01613
1.1951 1.13106
1.1958 1.10890
1.1964 1.10491
1.1971 1.14402
1.1977 1.13754
1.1984 1.12611
1.1990 1.17046
1.1997 1.15445
1.2004 1.03320
1.2010 0.99627
1.2017 1.02691
1.2023 1.11996
1.2030 1.07339
1.2036 1.08650
1.2043 1.08650
1.2050 1.04482
1.2056 1.12035
1.2063 1.15077
1.2069 1.19869
1.2076 1.05739
1.2082 1.19329
1.2089 1.12229
1.2095 1.07628
1.2102 1.17353
1.2109 1.11076
1.2115 1.16014
1.2122 1.07136
1.2128 1.04545
1.2135 1.08008
1.2142 1.13332
1.2148 1.07592
1.2155 1.12462
1.2161 1.08000
1.2168 1.12611
1.2174 1.14943
1.2181 1.12611
1.2187 1.12229
1.2194 1.09918
1.2201 1.12462
1.2207 1.12462
1.2214 1.12545
1.2220 1.15159
1.2227 1.18630
1.2233 1.18863
1.2240 1.21401
1.2247 1.16742
1.2253 1.08860
1.2260 1.05117
1.2266 1.11076
1.2273 1.19167
1.2279 1.03083
1.2286 1.12769
1.2292 1.12769
1.2299 1.05772
1.2306 1.13003
1.2312 1.14311
1.2319 1.13003
1.2325 1.24334
1.2332 1.13326
1.2338 1.21842
1.2345 1.10215
1.2351 1.13326
1.2358 1.03916
1.2365 1.12769
1.2371 1.21860
1.2378 1.13003
1.2384 1.09371
1.2391 1.08662
1.2397 1.13752
1.2404 1.19052
1.2411 1.12545
1.2417 1.10324
1.2424 1.07620
1.2430 1.18498
1.2437 1.08262
1.2443 1.19356
1.2450 1.18280
1.2456 1.11252
1.2463 1.07692
1.2470 1.17600
1.2476 1.21464
1.2483 1.22765
1.2489 1.21385
1.2496 1.20177
1.2503 1.19444
1.2509 1.13500
1.2516 1.27192
1.2522 1.21984
1.2529 1.08105
1.2535 1.10663
1.2542 1.15357
1.2548 1.15463
1.2555 1.15463
1.2562 1.15703
1.2568 1.09160
1.2575 1.07109
1.2581 1.09760
1.2588 1.08986
1.2594 1.15463
1.2601 1.24670
1.2608 1.25859
1.2614 1.14983
1.2621 1.18280
1.2627 1.10061
1.2634 1.15357
1.2640 1.19747
1.2647 1.21556
1.2653 1.17247
1.2660 1.18963
1.2667 1.26026
1.2673 1.27142
1.2680 1.24453
1.2686 1.19341
1.2693 1.18284
1.2699 1.23214
1.2706 1.21872
1.2712 1.04412
1.2719 1.15703
1.2726 1.15463
1.2732 1.10441
1.2739 1.15703
1.2745 1.17247
1.2752 1.15703
1.2758 1.15463
1.2765 1.24486
1.2772 1.15357
1.2778 1.11102
1.2785 1.07451
1.2791 1.15915
1.2798 1.23496
1.2804 1.11807
1.2811 1.08892
1.2818 1.23959
1.2824 1.25391
1.2831 1.15843
1.2837 1.12721
1.2844 1.21752
1.2850 1.14020
1.2857 1.26478
1.2864 1.15894
1.2870 1.14202
1.2877 1.09948
1.2883 1.24190
1.2890 1.12526
1.2896 1.15894
1.2903 1.15894
1.2910 1.08501
1.2916 1.11004
1.2923 1.08648
1.2929 1.07615
1.2936 1.18800
1.2942 1.27636
1.2949 1.21087
1.2955 1.17267
1.2962 1.07294
1.2969 1.17267
1.2975 1.08115
1.2982 1.15894
1.2988 1.10836
1.2995 1.17092
1.3001 1.19713
1.3008 1.12544
1.3014 1.09947
1.3021 1.16591
1.3028 1.20990
1.3034 1.22305
1.3041 1.17092
1.3047 1.15477
1.3054 1.16591
1.3060 1.15894
1.3067 1.14959
1.3074 1.19791
1.3080 1.16591
1.3087 1.16591
1.3093 1.19857
1.3100 1.17267
1.3106 1.29066
1.3113 1.18800
1.3119 1.18523
1.3126 1.24862
1.3133 1.24961
1.3139 1.18856
1.3146 1.19803
1.3152 1.19713
1.3159 1.10192
1.3165 1.18856
1.3172 1.29504
1.3179 1.19791
1.3185 1.19791
1.3192 1.28376
1.3198 1.30570
1.3205 1.13083
1.3211 1.19857
1.3218 1.12578
1.3224 1.22449
1.3231 1.10373
1.3238 1.12201
1.3244 1.22449
1.3251 1.23641
1.3257 1.23641
1.3264 1.23641
1.3271 1.25701
1.3277 1.24248
1.3284 1.33943
1.3290 1.23641
1.3297 1.24960
1.3303 1.32132
1.3310 1.28401
1.3316 1.19803
1.3323 1.25333
1.3330 1.28991
1.3336 1.26693
1.3343 1.24248
1.3349 1.17999
1.3356 1.26960
1.3362 1.28210
1.3369 1.26960
1.3376 1.18114
1.3382 1.28376
1.3389 1.28401
1.3395 1.26213
1.3402 1.28210
1.3408 1.28991
1.3415 1.30297
1.3421 1.33674
1.3428 1.32777
1.3435 1.38911
1.3441 1.32132
1.3448 1.32777
1.3454 1.33674
1.3461 1.45525
1.3467 1.40045
1.3474 1.44850
1.3480 1.46430
1.3487 1.45817
1.3494 1.39557
1.3500 1.39778
1.3507 1.41127
1.3513 1.39778
1.3520 1.40045
1.3526 1.32777
1.3533 1.40045
1.3540 1.40045
1.3546 1.40045
1.3553 1.50504
1.3559 1.51271
1.3566 1.40045
1.3572 1.40885
1.3579 1.40885
1.3585 1.39557
1.3592 1.40885
1.3599 1.42314
1.3605 1.42314
1.3612 1.43986
1.3618 1.44850
1.3625 1.53985
1.3632 1.46430
1.3638 1.46430
1.3645 1.39778
1.3651 1.45817
1.3658 1.33067
1.3664 1.47019
1.3671 1.44850
1.3677 1.43986
1.3684 1.43986
1.3691 1.40885
1.3697 1.41127
1.3704 1.41127
1.3710 1.40885
1.3717 1.42314
1.3723 1.42314
1.3730 1.43986
1.3737 1.43986
1.3743 1.42314
1.3750 1.40885
1.3756 1.32303
1.3763 1.31907
1.3769 1.43986
1.3776 1.39557
1.3782 1.38419
1.3789 1.33067
1.3796 1.31907
1.3802 1.32303
1.3809 1.32303
1.3815 1.32303
1.3822 1.31907
1.3828 1.25391
1.3835 1.32303
1.3841 1.32303
1.3848 1.32303
1.3855 1.32303
1.3861 1.31907
1.3868 1.29403
1.3874 1.27243
1.3881 1.26427
1.3887 1.27243
1.3894 1.27243
1.3901 1.27243
1.3907 1.26427
1.3914 1.25391
1.3920 1.23283
1.3927 1.23283
1.3933 1.25391
1.3940 1.18331
1.3947 1.25391
1.3953 1.29403
1.3960 1.27243
1.3966 1.27243
1.3973 1.26427
1.3979 1.26427
1.3986 1.26427
1.3993 1.27243
1.3999 1.26427
1.4006 1.26427
1.4012 1.25391
1.4019 1.25391
1.4025 1.20054
1.4032 1.18331
1.4039 1.18365
1.4045 1.18365
1.4052 1.27243
1.4058 1.29403
1.4065 1.18365
1.4071 1.27243
1.4078 1.26427
1.4084 1.27243
1.4091 1.32264
1.4098 1.29403
1.4104 1.29403
1.4111 1.29403
1.4117 1.29403
1.4124 1.14726
1.4130 1.32177
1.4137 1.26242
1.4143 1.26242
1.4150 1.26242
1.4157 1.26242
1.4163 1.14397
1.4170 1.26242
1.4176 1.26242
1.4183 1.22626
1.4189 1.26242
1.4196 1.26242
1.4203 1.35610
1.4209 1.20054
1.4216 1.16228
1.4222 1.26242
1.4229 1.14843
1.4235 1.24672
1.4242 1.29989
1.4248 1.22626
1.4255 1.22626
1.4262 1.33603
1.4268 1.22626
1.4275 1.22626
1.4281 1.19145
1.4288 1.12087
1.4294 1.11667
1.4301 1.26242
1.4308 1.22626
1.4314 1.24284
1.4321 1.22324
1.4327 1.31928
1.4334 1.15558
1.4340 1.17009
1.4347 1.22626
1.4353 1.22324
1.4360 1.18589
1.4367 1.20054
1.4373 1.22626
1.4380 1.12728
1.4386 1.22324
1.4393 1.24672
1.4400 1.22626
1.4406 1.22626
1.4413 1.27416
1.4419 1.27263
1.4426 1.31201
1.4432 1.25057
1.4439 1.17918
1.4445 1.24284
1.4452 1.33805
1.4459 1.24284
1.4465 1.19278
1.4472 1.22649
1.4478 1.11331
1.4485 1.22649
1.4491 1.18652
1.4498 1.23855
1.4505 1.23855
1.4511 1.28959
1.4518 1.24284
1.4524 1.24284
1.4531 1.23855
1.4537 1.12165
1.4544 1.25057
1.4550 1.24284
1.4557 1.17285
1.4564 1.25057
1.4570 1.18253
1.4577 1.22649
1.4583 1.27094
1.4590 1.27094
1.4596 1.35805
1.4603 1.27416
1.4609 1.27416
1.4616 1.35597
1.4623 1.31673
1.4629 1.27481
1.4636 1.20029
1.4642 1.37731
1.4649 1.31673
1.4655 1.20665
1.4662 1.23855
1.4669 1.23584
1.4675 1.27481
1.4682 1.33736
1.4688 1.31673
1.4695 1.31673
1.4701 1.30768
1.4708 1.28959
1.4714 1.35899
1.4721 1.30768
1.4728 1.30768
1.4734 1.30768
1.4741 1.30768
1.4747 1.27094
1.4754 1.40841
1.4761 1.41884
1.4767 1.44668
1.4774 1.31673
1.4780 1.40710
1.4787 1.41820
1.4793 1.33788
1.4800 1.27481
1.4806 1.22709
1.4813 1.27094
1.4820 1.33138
1.4826 1.27094
1.4833 1.27094
1.4839 1.34826
1.4846 1.24411
1.4852 1.30768
1.4859 1.27094
1.4866 1.27481
1.4872 1.28276
1.4879 1.30461
1.4885 1.29359
1.4892 1.29359
1.4898 1.29359
1.4905 1.20881
1.4912 1.18824
1.4918 1.28276
1.4925 1.29048
1.4931 1.29359
1.4938 1.30461
1.4944 1.29359
1.4951 1.30461
1.4957 1.29359
1.4964 1.17162
1.4970 1.29359
1.4977 1.29359
1.4984 1.20673
1.4990 1.18758
1.4997 1.19348
1.5003 1.22586
1.5010 1.38431
1.5016 1.39274
1.5023 1.23472
1.5030 1.33281
1.5036 1.37980
1.5043 1.24411
1.5049 1.28449
1.5056 1.28276
1.5062 1.28276
1.5069 1.30461
1.5076 1.40049
1.5082 1.28007
1.5089 1.28449
1.5095 1.37761
1.5102 1.34209
1.5108 1.24009
1.5115 1.29048
1.5122 1.36466
1.5128 1.38791
1.5135 1.44200
1.5141 1.44320
1.5148 1.26930
1.5154 1.33281
1.5161 1.23249
1.5168 1.35838
1.5174 1.34901
1.5181 1.25400
1.5187 1.32456
1.5194 1.27758
1.5200 1.23752
1.5207 1.23992
1.5213 1.32415
1.5220 1.41134
1.5227 1.28449
1.5233 1.39883
1.5240 1.46371
1.5246 1.35838
1.5253 1.46990
1.5259 1.39800
1.5266 1.26543
1.5272 1.38583
1.5279 1.47163
1.5286 1.34901
1.5292 1.44143
1.5299 1.34901
1.5305 1.41212
1.5312 1.34901
1.5318 1.34779
1.5325 1.32823
1.5332 1.43552
1.5338 1.33268
1.5345 1.32424
1.5351 1.33367
1.5358 1.33367
1.5364 1.33367
1.5371 1.33268
1.5377 1.41358
1.5384 1.33268
1.5391 1.33268
1.5397 1.30310
1.5404 1.33228
1.5410 1.21577
1.5417 1.46145
1.5424 1.33228
1.5430 1.33268
1.5437 1.45080
1.5443 1.32823
1.5450 1.32823
1.5456 1.32424
1.5463 1.32461
1.5469 1.32823
1.5476 1.27371
1.5482 1.34779
1.5489 1.35283
1.5496 1.29679
1.5502 1.21192
1.5509 1.32424
1.5515 1.21455
1.5522 1.30310
1.5529 1.32303
1.5535 1.29679
1.5542 1.36868
1.5548 1.34933
1.5555 1.17768
1.5561 1.29142
1.5568 1.32461
1.5574 1.29436
1.5581 1.29142
1.5588 1.17461
1.5594 1.16562
1.5601 1.35009
1.5607 1.18851
1.5614 1.29142
1.5620 1.18223
1.5627 1.28120
1.5633 1.28180
1.5640 1.28120
1.5647 1.24097
1.5653 1.28004
1.5660 1.28120
1.5666 1.28180
1.5673 1.28390
1.5679 1.36696
1.5686 1.34774
1.5693 1.24800
1.5699 1.28390
1.5706 1.29142
1.5712 1.26141
1.5719 1.29436
1.5725 1.26141
1.5732 1.28390
1.5739 1.39382
1.5745 1.28390
1.5752 1.36793
1.5758 1.36197
1.5765 1.28390
1.5771 1.20544
1.5778 1.28180
1.5784 1.17758
1.5791 1.29185
1.5798 1.29436
1.5804 1.29436
1.5811 1.28120
1.5817 1.34294
1.5824 1.34599
1.5830 1.34294
1.5837 1.34774
1.5843 1.36707
1.5850 1.45885
1.5857 1.44869
1.5863 1.41355
1.5870 1.34599
1.5876 1.37131
1.5883 1.41663
1.5890 1.32245
1.5896 1.33164
1.5903 1.33164
1.5909 1.34294
1.5916 1.34599
1.5922 1.34794
1.5929 1.39057
1.5935 1.37923
1.5942 1.25263
1.5949 1.34599
1.5955 1.30857
1.5962 1.42776
1.5968 1.32245
1.5975 1.29040
1.5981 1.32245
1.5988 1.32245
1.5995 1.27022
1.6001 1.34294
1.6008 1.30857
1.6014 1.30857
1.6021 1.30857
1.6027 1.30857
1.6034 1.40787
1.6040 1.40315
1.6047 1.23781
1.6054 1.30857
1.6060 1.30289
1.6067 1.29913
1.6073 1.32245
1.6080 1.29622
1.6086 1.22202
1.6093 1.33899
1.6099 1.39523
1.6106 1.29040
1.6113 1.29548
1.6119 1.29622
1.6126 1.29622
1.6132 1.29040
1.6139 1.29040
1.6145 1.23525
1.6152 1.24379
1.6159 1.16577
1.6165 1.20666
1.6172 1.30289
1.6178 1.29548
1.6185 1.29913
1.6191 1.26735
1.6198 1.27611
1.6205 1.27611
1.6211 1.26735
1.6218 1.26197
1.6224 1.17212
1.6231 1.35978
1.6237 1.33151
1.6244 1.26735
1.6251 1.29622
1.6257 1.17580
1.6264 1.27611
1.6270 1.30837
1.6277 1.23525
1.6283 1.12964
1.6290 1.26197
1.6296 1.24379
1.6303 1.22671
1.6310 1.31268
1.6316 1.23525
1.6323 1.22549
1.6329 1.14662
1.6336 1.28882
1.6342 1.21449
1.6349 1.24379
1.6356 1.22752
1.6362 1.22752
1.6369 1.22752
1.6375 1.34828
1.6382 1.31391
1.6388 1.25879
1.6395 1.35009
1.6402 1.22752
1.6408 1.22752
1.6415 1.25879
1.6421 1.13921
1.6428 1.25879
1.6434 1.25879
1.6441 1.25879
1.6444 1.28734
1.6454 1.28991
1.6464 1.28991
1.6474 1.28991
1.6484 1.28991
1.6495 1.29846
1.6505 1.29846
1.6515 1.29846
1.6525 1.29846
1.6535 1.30712
1.6545 1.30712
1.6556 1.31007
1.6566 1.32440
1.6576 1.32819
1.6586 1.32440
1.6596 1.32440
1.6606 1.32440
1.6617 1.31418
1.6627 1.31418
1.6637 1.31007
1.6647 1.32440
1.6657 1.32440
1.6667 1.31418
1.6677 1.32440
1.6688 1.31418
1.6698 1.29965
1.6708 1.29965
1.6718 1.29965
1.6728 1.29965
1.6738 1.29846
1.6748 1.29965
1.6759 1.31418
1.6769 1.31418
1.6779 1.29965
1.6789 1.29846
1.6799 1.29846
1.6809 1.29965
1.6820 1.31418
1.6830 1.29965
1.6840 1.29242
1.6850 1.29846
1.6860 1.29965
1.6870 1.29965
1.6881 1.29965
1.6891 1.29390
1.6901 1.29965
1.6911 1.29965
1.6921 1.31418
1.6931 1.31418
1.6942 1.30701
1.6952 1.29390
1.6962 1.29390
1.6972 1.29390
1.6982 1.29242
1.6992 1.29390
1.7003 1.29390
1.7013 1.29242
1.7023 1.29242
1.7033 1.29390
1.7043 1.29390
1.7053 1.29242
1.7063 1.29242
1.7074 1.28412
1.7084 1.28412
1.7094 1.28396
1.7104 1.27890
1.7114 1.27215
1.7124 1.26700
1.7134 1.26700
1.7145 1.26700
1.7155 1.26124
1.7165 1.25346
1.7175 1.25346
1.7185 1.26124
1.7195 1.25346
1.7206 1.25317
1.7216 1.25317
1.7226 1.24724
1.7236 1.24724
1.7246 1.24724
1.7256 1.24724
1.7267 1.24724
1.7277 1.24474
1.7287 1.25317
1.7297 1.25317
1.7307 1.26124
1.7317 1.26124
1.7328 1.26700
1.7338 1.26700
1.7348 1.27890
1.7358 1.27224
1.7368 1.27224
1.7378 1.27311
1.7389 1.28396
1.7399 1.27758
1.7409 1.27758
1.7419 1.27311
1.7429 1.27224
1.7439 1.27224
1.7449 1.27311
1.7460 1.27311
1.7470 1.27224
1.7480 1.26145
1.7490 1.25346
1.7500 1.26952
1.7510 1.26145
1.7521 1.26952
1.7531 1.26145
1.7541 1.26145
1.7551 1.26145
1.7561 1.25317
1.7571 1.26145
1.7582 1.26145
1.7592 1.26145
1.7602 1.26952
1.7612 1.26952
1.7622 1.27224
1.7632 1.27311
1.7642 1.27311
1.7653 1.27311
1.7663 1.27311
1.7673 1.27224
1.7683 1.27224
1.7693 1.27311
1.7703 1.27311
1.7713 1.28726
1.7724 1.28726
1.7734 1.28726
1.7744 1.28726
1.7754 1.29617
1.7764 1.30486
1.7774 1.30486
1.7785 1.31302
1.7795 1.31302
1.7805 1.32393
1.7815 1.32451
1.7825 1.32393
1.7835 1.32451
1.7846 1.32482
1.7856 1.32451
1.7866 1.32541
1.7876 1.31302
1.7886 1.32541
1.7896 1.32482
1.7907 1.32482
1.7917 1.32541
1.7927 1.32482
1.7937 1.32482
1.7947 1.32541
1.7957 1.32393
1.7968 1.32451
1.7978 1.32541
1.7988 1.32482
1.7998 1.32482
1.8008 1.32482
1.8018 1.32482
1.8028 1.33843
1.8039 1.34349
1.8049 1.33843
1.8059 1.33843
1.8069 1.32482
1.8079 1.33843
1.8089 1.32482
1.8099 1.32482
1.8110 1.33843
1.8120 1.34349
1.8130 1.34596
1.8140 1.34349
1.8150 1.34349
1.8160 1.34349
1.8171 1.34852
1.8181 1.34892
1.8191 1.36524
1.8201 1.36741
1.8211 1.36524
1.8221 1.34892
1.8232 1.36741
1.8242 1.36741
1.8252 1.34892
1.8262 1.40808
1.8272 1.40808
1.8282 1.34892
1.8293 1.40808
1.8303 1.34892
1.8313 1.34852
1.8323 1.34852
1.8333 1.33843
1.8343 1.30681
1.8353 1.34852
1.8364 1.33843
1.8374 1.33843
1.8384 1.33843
1.8394 1.34852
1.8404 1.34852
1.8414 1.33843
1.8425 1.30681
1.8435 1.30681
1.8445 1.25205
1.8455 1.34852
1.8465 1.25205
1.8475 1.23982
1.8485 1.22628
1.8496 1.21870
1.8506 1.21870
1.8516 1.17565
1.8526 1.17565
1.8536 1.11505
1.8546 1.11505
1.8557 1.16915
1.8567 1.11505
1.8577 1.11505
1.8587 1.10918
1.8597 1.10918
1.8607 1.11505
1.8617 1.11505
1.8628 1.11505
1.8638 1.16915
1.8648 1.17565
1.8658 1.11505
1.8668 1.11505
1.8678 1.11505
1.8689 1.16915
1.8699 1.17565
1.8709 1.23982
1.8719 1.32031
1.8729 1.33454
1.8739 1.33454
1.8750 1.36526
1.8760 1.36526
1.8770 1.38271
1.8780 1.38271
1.8790 1.36526
1.8800 1.36526
1.8811 1.36526
1.8821 1.38271
1.8831 1.38271
1.8841 1.43316
1.8851 1.43294
1.8861 1.36526
1.8872 1.36526
1.8882 1.33454
1.8892 1.33454
1.8902 1.33454
1.8912 1.32031
1.8922 1.33454
1.8932 1.33454
1.8943 1.33454
1.8953 1.38271
1.8963 1.43294
1.8973 1.43294
1.8983 1.38271
1.8993 1.36526
1.9003 1.33454
1.9014 1.33454
1.9024 1.32031
1.9034 1.26226
1.9044 1.26226
1.9054 1.26226
1.9064 1.26525
1.9075 1.32031
1.9085 1.26525
1.9095 1.32139
1.9105 1.32139
1.9115 1.33454
1.9125 1.33454
1.9136 1.33454
1.9146 1.32139
1.9156 1.33454
1.9166 1.33454
1.9176 1.32139
1.9186 1.32139
1.9197 1.32031
1.9207 1.32031
1.9217 1.26226
1.9227 1.26226
1.9237 1.26525
1.9247 1.26525
1.9258 1.26226
1.9268 1.24278
1.9278 1.24278
1.9288 1.26226
1.9298 1.24278
1.9308 1.21498
1.9318 1.21498
1.9329 1.18565
1.9339 1.18565
1.9349 1.18565
1.9359 1.17080
1.9369 1.17062
1.9379 1.17062
1.9389 1.17062
1.9400 1.15990
1.9410 1.17062
1.9420 1.17062
1.9430 1.17080
1.9440 1.17062
1.9450 1.13857
1.9461 1.13857
1.9471 1.13857
1.9481 1.13857
1.9491 1.14061
1.9501 1.14061
1.9511 1.15990
1.9522 1.17062
1.9532 1.17062
1.9542 1.15990
1.9552 1.15990
1.9562 1.17062
1.9572 1.17080
1.9582 1.17062
1.9593 1.15990
1.9603 1.17062
1.9613 1.17080
1.9623 1.17062
1.9633 1.17080
1.9643 1.17080
1.9654 1.18565
1.9664 1.19209
1.9674 1.19209
1.9684 1.19209
1.9694 1.19837
1.9704 1.19837
1.9715 1.19209
1.9725 1.19209
1.9735 1.19209
1.9745 1.19209
1.9755 1.19837
1.9765 1.19837
1.9775 1.19209
1.9786 1.19209
1.9796 1.19209
1.9806 1.18849
1.9816 1.18849
1.9826 1.19209
1.9836 1.19837
1.9847 1.21379
1.9857 1.19837
1.9867 1.19837
1.9877 1.19209
1.9887 1.19837
1.9897 1.19837
1.9908 1.19209
1.9918 1.19209
1.9928 1.19837
1.9938 1.19209
1.9948 1.19837
1.9958 1.19837
1.9969 1.19209
1.9979 1.19837
1.9989 1.19209
1.9999 1.19190
2.0009 1.19190
2.0019 1.19190
2.0029 1.19190
2.0040 1.19190
2.0050 1.18987
2.0060 1.18564
2.0070 1.19190
2.0080 1.19190
2.0090 1.18987
2.0101 1.19837
2.0111 1.20902
2.0121 1.20902
2.0131 1.19837
2.0141 1.19837
2.0151 1.19837
2.0162 1.20902
2.0172 1.20902
2.0182 1.20902
2.0192 1.20902
2.0202 1.21379
2.0212 1.21398
2.0222 1.22780
2.0233 1.22780
2.0243 1.22820
2.0253 1.22820
2.0263 1.24019
2.0273 1.24019
2.0283 1.20902
2.0294 1.22820
2.0304 1.22820
2.0314 1.22820
2.0324 1.20902
2.0334 1.19324
2.0344 1.20902
2.0354 1.20902
2.0365 1.20902
2.0375 1.20378
2.0385 1.20902
2.0395 1.22820
2.0405 1.20902
2.0415 1.20902
2.0426 1.20902
2.0436 1.20902
2.0446 1.20902
2.0456 1.20902
2.0466 1.20902
2.0476 1.22820
2.0486 1.23367
2.0497 1.22820
2.0507 1.22820
2.0517 1.23367
2.0527 1.24305
2.0537 1.25158
2.0547 1.25158
2.0558 1.25158
2.0568 1.25158
2.0578 1.26885
2.0588 1.27754
2.0598 1.26885
2.0608 1.27202
2.0619 1.26885
2.0629 1.27754
2.0639 1.27754
2.0649 1.28601
2.0659 1.28601
2.0669 1.28601
2.0680 1.28663
2.0690 1.27754
2.0700 1.27660
2.0710 1.27754
2.0720 1.27660
2.0730 1.27660
2.0741 1.27660
2.0751 1.27202
2.0761 1.27202
2.0771 1.27660
2.0781 1.27754
2.0791 1.27660
2.0801 1.27660
2.0812 1.27202
2.0822 1.26885
2.0832 1.26885
2.0842 1.25158
2.0852 1.26885
2.0862 1.25158
2.0873 1.24221
2.0883 1.24221
2.0893 1.24221
2.0903 1.25158
2.0913 1.25158
2.0923 1.25158
2.0934 1.24221
2.0944 1.24221
2.0954 1.22123
2.0964 1.21649
2.0974 1.22123
2.0984 1.24221
2.0994 1.22123
2.1005 1.25158
2.1015 1.24314
2.1025 1.24221
2.1035 1.22123
2.1045 1.24221
2.1055 1.24221
2.1065 1.24221
2.1076 1.24221
2.1086 1.24221
2.1096 1.24221
2.1106 1.24221
2.1116 1.24314
2.1126 1.24221
2.1137 1.22123
2.1147 1.22123
2.1157 1.21649
2.1167 1.22123
2.1177 1.24221
2.1187 1.24221
2.1198 1.24314
2.1208 1.24221
2.1218 1.24221
2.1228 1.24221
2.1238 1.22123
2.1248 1.22123
2.1258 1.21944
2.1269 1.21944
2.1279 1.21944
2.1289 1.21944
2.1299 1.22123
2.1309 1.22123
2.1319 1.24314
2.1330 1.24221
2.1340 1.24221
2.1350 1.23686
2.1360 1.23935
2.1370 1.22123
2.1380 1.21944
2.1391 1.19195
2.1401 1.19195
2.1411 1.21944
2.1421 1.21758
2.1431 1.21944
2.1441 1.22014
2.1452 1.22014
2.1462 1.22123
2.1472 1.22014
2.1482 1.22123
2.1492 1.22123
2.1502 1.22014
2.1513 1.22014
2.1523 1.22014
2.1533 1.22014
2.1543 1.23686
2.1553 1.22014
2.1563 1.22014
2.1573 1.22014
2.1584 1.23686
2.1594 1.23935
2.1604 1.23686
2.1614 1.23686
2.1624 1.23686
2.1634 1.22014
2.1644 1.23686
2.1655 1.23935
2.1665 1.23686
2.1675 1.25875
2.1685 1.25875
2.1695 1.25875
2.1705 1.25875
2.1716 1.25875
2.1726 1.25875
2.1736 1.23686
2.1746 1.23935
2.1756 1.25875
2.1766 1.25875
2.1777 1.25875
2.1787 1.25875
2.1797 1.25875
2.1807 1.23935
2.1817 1.23686
2.1827 1.23686
2.1837 1.23935
2.1848 1.25189
2.1858 1.26432
2.1868 1.26897
2.1878 1.26432
2.1888 1.26897
2.1898 1.26897
2.1909 1.27067
2.1919 1.28401
2.1929 1.28401
2.1939 1.28401
2.1949 1.27067
2.1959 1.26897
2.1970 1.26897
2.1980 1.25875
2.1990 1.25875
2.2000 1.25875
2.2010 1.25875
2.2020 1.27067
2.2031 1.28401
2.2041 1.28592
2.2051 1.28592
2.2061 1.28401
2.2071 1.28592
2.2081 1.28592
2.2091 1.27067
2.2102 1.27067
2.2112 1.28401
2.2122 1.28401
2.2132 1.28401
2.2142 1.28401
2.2152 1.30538
2.2163 1.28592
2.2173 1.28401
2.2183 1.28592
2.2193 1.27067
2.2203 1.27067
2.2213 1.27067
2.2224 1.28401
2.2234 1.28592
2.2244 1.30538
2.2254 1.31068
2.2264 1.31257
2.2274 1.31257
2.2284 1.31673
2.2295 1.31257
2.2305 1.31257
2.2315 1.31257
2.2325 1.31986
2.2335 1.30881
2.2345 1.31068
2.2355 1.31257
2.2366 1.31673
2.2376 1.31257
2.2386 1.31673
2.2396 1.31986
2.2406 1.31986
2.2416 1.31673
2.2427 1.31986
2.2437 1.31986
2.2447 1.31986
2.2457 1.31986
2.2467 1.33578
2.2477 1.36955
2.2488 1.36955
2.2498 1.36955
2.2508 1.31986
2.2518 1.31986
2.2528 1.31986
2.2538 1.31673
2.2548 1.31257
2.2559 1.31257
2.2569 1.31257
2.2579 1.31257
2.2589 1.31673
2.2599 1.30881
2.2609 1.31673
2.2620 1.31673
2.2630 1.31986
2.2640 1.31673
2.2650 1.30881
2.2660 1.30044
2.2670 1.29105
2.2681 1.29105
2.2691 1.29105
2.2701 1.30044
2.2711 1.30044
2.2721 1.30881
2.2731 1.30881
2.2742 1.30881
2.2752 1.30881
2.2762 1.30044
2.2772 1.30881
2.2782 1.30881
2.2792 1.31257
2.2803 1.31257
2.2813 1.31257
2.2823 1.30044
2.2833 1.29105
2.2843 1.30044
2.2853 1.29105
2.2863 1.28959
2.2874 1.26835
2.2884 1.26835
2.2894 1.26835
2.2904 1.27423
2.2914 1.27423
2.2924 1.26835
2.2934 1.25750
2.2945 1.23641
2.2955 1.23641
2.2965 1.23641
2.2975 1.23641
2.2985 1.23641
2.2995 1.22170
2.3006 1.22170
2.3016 1.23641
2.3026 1.22170
2.3036 1.23641
2.3046 1.24103
2.3056 1.23641
2.3067 1.23641
2.3077 1.21777
2.3087 1.22170
2.3097 1.22170
2.3107 1.22170
2.3117 1.22170
2.3127 1.22170
2.3138 1.21777
2.3148 1.17599
2.3158 1.17599
2.3168 1.19451
2.3178 1.17266
2.3188 1.16048
2.3199 1.16048
2.3209 1.16048
2.3219 1.17266
2.3229 1.19451
2.3239 1.22170
2.3249 1.19451
2.3260 1.17599
2.3270 1.18435
2.3280 1.18435
2.3290 1.19451
2.3300 1.23641
2.3310 1.21099
2.3321 1.21099
2.3331 1.24103
2.3341 1.23641
2.3351 1.21099
2.3361 1.23641
2.3371 1.23641
2.3382 1.23878
2.3392 1.21099
2.3402 1.21099
2.3412 1.23641
2.3422 1.23878
2.3432 1.24103
2.3442 1.24103
2.3453 1.24103
2.3463 1.23878
2.3473 1.23878
2.3483 1.23878
2.3493 1.23878
2.3503 1.21099
2.3514 1.18435
2.3524 1.18435
2.3534 1.18435
2.3544 1.21099
2.3554 1.28793
2.3564 1.30707
2.3575 1.28793
2.3585 1.30707
2.3595 1.30707
2.3605 1.30707
2.3615 1.30707
2.3625 1.28793
2.3635 1.28793
2.3646 1.28793
2.3656 1.28793
2.3666 1.21099
2.3676 1.21099
2.3686 1.23878
2.3696 1.34616
2.3706 1.35012
2.3717 1.35012
2.3727 1.35849
2.3737 1.36730
2.3747 1.37592
2.3757 1.40447
2.3767 1.40447
2.3778 1.40447
2.3788 1.40447
2.3798 1.37592
2.3808 1.41358
2.3818 1.41899
2.3828 1.40447
2.3839 1.40447
2.3849 1.41899
2.3859 1.41899
2.3869 1.42738
2.3879 1.42738
2.3889 1.40447
2.3899 1.40447
2.3910 1.40447
2.3920 1.40447
2.3930 1.42738
2.3940 1.41899
2.3950 1.47708
2.3960 1.41899
2.3971 1.47708
2.3981 1.47708
2.3991 1.47708
2.4001 1.41899
2.4011 1.47708
2.4021 1.41899
2.4032 1.41899
2.4042 1.41899
2.4052 1.41899
2.4062 1.47708
2.4072 1.48701
2.4082 1.55113
2.4093 1.55113
