Asteroid designations ( Number, Name, Temporary designation): 68359, -, 2001_OZ13
Observation was done on (UT) (format YYYY-MM-DD-hh): 2005 - 10 - 31 - 00:00
Observation was made by : Simone Ieva E-mail; simone.ieva@obspm.fr
At observatory with UAI code: 262
Obsv. comments: Ieva et al. (2013) in preparation
The spectrum was published in the article: http://www.oa-roma.inaf.it/planet/NEOSURFACE.html
The normalization of this spectrum was made for the wavelength: 0.550 microns.
Original name of the file was: 68359_1.txt
Wavelength[um]	Reflectance	sigma(optional)
0.4381 0.73939
0.4388 0.73939
0.4395 0.73939
0.4403 0.73332
0.4410 0.78590
0.4418 0.69445
0.4425 0.71046
0.4432 0.73939
0.4440 0.73332
0.4447 0.73939
0.4454 0.78465
0.4462 0.74985
0.4469 0.71420
0.4476 0.76892
0.4484 0.79144
0.4491 0.76892
0.4498 0.76892
0.4506 0.74734
0.4513 0.79928
0.4521 0.77688
0.4528 0.71020
0.4535 0.75757
0.4543 0.81834
0.4550 0.77688
0.4557 0.82067
0.4565 0.74181
0.4572 0.79283
0.4579 0.79283
0.4587 0.71188
0.4594 0.75757
0.4601 0.83232
0.4609 0.81118
0.4616 0.81293
0.4624 0.81118
0.4631 0.79283
0.4638 0.72731
0.4646 0.73084
0.4653 0.81293
0.4660 0.85126
0.4668 0.82655
0.4675 0.87143
0.4682 0.92399
0.4690 0.77067
0.4697 0.93565
0.4704 0.89469
0.4712 0.83515
0.4719 0.85380
0.4727 0.92100
0.4734 0.89828
0.4741 0.85636
0.4749 0.85792
0.4756 0.83826
0.4763 0.84342
0.4771 0.85380
0.4778 0.79356
0.4785 0.94685
0.4793 0.91166
0.4800 0.85480
0.4807 0.88337
0.4815 0.85480
0.4822 0.93389
0.4830 0.83666
0.4837 0.81120
0.4844 0.84887
0.4852 0.78657
0.4859 0.94432
0.4866 0.89414
0.4874 0.85834
0.4881 0.78388
0.4888 0.83552
0.4896 0.84887
0.4903 0.82199
0.4910 0.84235
0.4918 0.90181
0.4925 0.85925
0.4933 0.82451
0.4940 0.87889
0.4947 0.92359
0.4955 0.89984
0.4962 0.91080
0.4969 0.94438
0.4977 0.85498
0.4984 0.81407
0.4991 0.89055
0.4999 0.92276
0.5006 0.94187
0.5013 0.94849
0.5021 0.88089
0.5028 0.82290
0.5036 0.81468
0.5043 0.87649
0.5050 0.84034
0.5058 0.79556
0.5065 0.86643
0.5072 0.88089
0.5080 0.90491
0.5087 0.87751
0.5094 0.86804
0.5102 0.88784
0.5109 0.89947
0.5116 0.87275
0.5124 0.95671
0.5131 0.90874
0.5139 0.92273
0.5146 0.95238
0.5153 0.94580
0.5161 1.00587
0.5168 0.94978
0.5175 0.86109
0.5183 0.87321
0.5190 0.87593
0.5197 0.90381
0.5205 0.92108
0.5212 0.86905
0.5219 0.95527
0.5227 0.92053
0.5234 0.90968
0.5242 0.93500
0.5249 0.96214
0.5256 0.95634
0.5264 0.96978
0.5271 0.96149
0.5278 0.92842
0.5286 0.91951
0.5293 0.99521
0.5300 0.97431
0.5308 0.91398
0.5315 0.91298
0.5322 0.88024
0.5330 0.90897
0.5337 0.95654
0.5345 0.97218
0.5352 0.92980
0.5359 0.88775
0.5367 0.83782
0.5374 0.87908
0.5381 0.87596
0.5389 0.88972
0.5396 0.92643
0.5403 0.97030
0.5411 0.99845
0.5418 0.93552
0.5425 0.99057
0.5433 0.94321
0.5440 0.95015
0.5448 0.98484
0.5455 0.97670
0.5462 0.96297
0.5470 0.92602
0.5477 0.97782
0.5484 1.01801
0.5492 0.98199
0.5499 1.00000
0.5506 0.96218
0.5514 0.91659
0.5521 0.95075
0.5528 0.91963
0.5536 0.95646
0.5543 1.04214
0.5551 1.01269
0.5558 0.99933
0.5565 0.98936
0.5573 0.98766
0.5580 0.98459
0.5587 0.98171
0.5595 0.91817
0.5602 0.94073
0.5609 0.99271
0.5617 1.02322
0.5624 0.96352
0.5631 1.02249
0.5639 1.00966
0.5646 1.00191
0.5654 1.03006
0.5661 0.99527
0.5668 1.01167
0.5676 1.01371
0.5683 0.97848
0.5690 1.02478
0.5698 1.03052
0.5705 1.03329
0.5712 1.01142
0.5720 1.00233
0.5727 0.98879
0.5734 0.96100
0.5742 1.00079
0.5749 0.99498
0.5756 1.07613
0.5764 1.09261
0.5771 1.10335
0.5779 0.95348
0.5786 0.98895
0.5793 1.01176
0.5801 0.97938
0.5808 1.01963
0.5815 0.98488
0.5823 1.11369
0.5830 1.07406
0.5837 1.11016
0.5845 1.08681
0.5852 1.01060
0.5859 1.06293
0.5867 1.11598
0.5874 1.03264
0.5882 1.02479
0.5889 1.00865
0.5896 1.01790
0.5904 1.01274
0.5911 1.05447
0.5918 1.02356
0.5926 0.97359
0.5933 1.04761
0.5940 1.01294
0.5948 1.08050
0.5955 1.09396
0.5962 1.07299
0.5970 1.03732
0.5977 1.05231
0.5985 1.04113
0.5992 1.00492
0.5999 1.02962
0.6007 1.02706
0.6014 1.09553
0.6021 1.03428
0.6029 1.04643
0.6036 1.08239
0.6043 1.03777
0.6051 1.06607
0.6058 1.11935
0.6065 1.11804
0.6073 1.09448
0.6080 1.04616
0.6088 1.00444
0.6095 1.05652
0.6102 1.08404
0.6110 1.09195
0.6117 1.10028
0.6124 1.08816
0.6132 1.06872
0.6139 1.06265
0.6146 1.06850
0.6154 1.03285
0.6161 1.03570
0.6168 1.10598
0.6176 1.06265
0.6183 1.06076
0.6191 1.03851
0.6198 1.02902
0.6205 1.04125
0.6213 1.00763
0.6220 1.04559
0.6227 1.10502
0.6235 1.10801
0.6242 1.13448
0.6249 1.14120
0.6257 1.10169
0.6264 1.02211
0.6271 1.01759
0.6279 1.02675
0.6286 1.04238
0.6294 1.05515
0.6301 1.02651
0.6308 1.06591
0.6316 1.11233
0.6323 1.10184
0.6330 1.06894
0.6338 1.07621
0.6345 1.07490
0.6352 1.04995
0.6360 1.03423
0.6367 1.04258
0.6374 1.10690
0.6382 1.11434
0.6389 1.09363
0.6397 1.13602
0.6404 1.13995
0.6411 1.11662
0.6419 1.09130
0.6426 1.09916
0.6433 1.13620
0.6441 1.13593
0.6448 1.12346
0.6455 1.12093
0.6463 1.11527
0.6470 1.09137
0.6477 1.09277
0.6485 1.13073
0.6492 1.12783
0.6500 1.08349
0.6507 1.10352
0.6514 1.10078
0.6522 1.12873
0.6529 1.12462
0.6536 1.12661
0.6544 1.16179
0.6551 1.15934
0.6558 1.17027
0.6566 1.13160
0.6573 1.11610
0.6580 1.08380
0.6588 1.10228
0.6595 1.13064
0.6603 1.10239
0.6610 1.11730
0.6617 1.10233
0.6625 1.06820
0.6632 1.08155
0.6639 1.11833
0.6647 1.16122
0.6654 1.14926
0.6661 1.07726
0.6669 1.07070
0.6676 1.08881
0.6683 1.08025
0.6691 1.07343
0.6698 1.06388
0.6706 1.11478
0.6713 1.16614
0.6720 1.10359
0.6728 1.12982
0.6735 1.12933
0.6742 1.03570
0.6750 1.02384
0.6757 1.11127
0.6764 1.11478
0.6772 1.09625
0.6779 1.11127
0.6786 1.16223
0.6794 1.12459
0.6801 1.13159
0.6809 1.13496
0.6816 1.09173
0.6823 1.11534
0.6831 1.12445
0.6838 1.13290
0.6845 1.06859
0.6853 1.12349
0.6860 1.15004
0.6867 1.13511
0.6875 1.12414
0.6882 1.12526
0.6889 1.16719
0.6897 1.13923
0.6904 1.12324
0.6912 1.11562
0.6919 1.09000
0.6926 1.09516
0.6934 1.12210
0.6941 1.13918
0.6948 1.09420
0.6956 1.11123
0.6963 1.14110
0.6970 1.10800
0.6978 1.15548
0.6985 1.12076
0.6992 1.20341
0.7000 1.13946
0.7007 1.14789
0.7015 1.13324
0.7022 1.18470
0.7029 1.13276
0.7037 1.11197
0.7044 1.15548
0.7051 1.15806
0.7059 1.21354
0.7066 1.13946
0.7073 1.13505
0.7081 1.21066
0.7088 1.24907
0.7095 1.21795
0.7103 1.19856
0.7110 1.16545
0.7118 1.12929
0.7125 1.11469
0.7132 1.18438
0.7140 1.13505
0.7147 1.19649
0.7154 1.23027
0.7162 1.18641
0.7169 1.18438
0.7176 1.14522
0.7184 1.16524
0.7191 1.18698
0.7198 1.19287
0.7206 1.12175
0.7213 1.11985
0.7221 1.19277
0.7228 1.12457
0.7235 1.14333
0.7243 1.15033
0.7250 1.23275
0.7257 1.21805
0.7265 1.16767
0.7272 1.13114
0.7279 1.14222
0.7287 1.18193
0.7294 1.10426
0.7301 1.13934
0.7309 1.18327
0.7316 1.15611
0.7324 1.15580
0.7331 1.13656
0.7338 1.13064
0.7346 1.12982
0.7353 1.15833
0.7360 1.13581
0.7368 1.11377
0.7375 1.15273
0.7382 1.16901
0.7390 1.16707
0.7397 1.18306
0.7404 1.18776
0.7412 1.20656
0.7419 1.16901
0.7427 1.26453
0.7434 1.14732
0.7441 1.18776
0.7449 1.10275
0.7456 1.20921
0.7463 1.19917
0.7471 1.16124
0.7478 1.23633
0.7485 1.22564
0.7493 1.22140
0.7500 1.17939
0.7507 1.21636
0.7515 1.18844
0.7522 1.17599
0.7530 1.29492
0.7537 1.23016
0.7544 1.15477
0.7552 1.17170
0.7559 1.25838
0.7566 1.23579
0.7574 1.23631
0.7581 1.20495
0.7588 1.12894
0.7596 1.25283
0.7603 1.21300
0.7610 1.19283
0.7618 1.14389
0.7625 1.19171
0.7633 1.13993
0.7640 1.19729
0.7647 1.18635
0.7655 1.10909
0.7662 1.17782
0.7669 1.21463
0.7677 1.10733
0.7684 1.10550
0.7691 1.21584
0.7699 1.24934
0.7706 1.18603
0.7713 1.18635
0.7721 1.15027
0.7728 1.21264
0.7736 1.13681
0.7743 1.21578
0.7750 1.24761
0.7758 1.19723
0.7765 1.18535
0.7772 1.21804
0.7780 1.19176
0.7787 1.19723
0.7794 1.21264
0.7802 1.21578
0.7809 1.21804
0.7816 1.19107
0.7824 1.21804
0.7831 1.25519
0.7838 1.26719
0.7846 1.19176
0.7853 1.19107
0.7861 1.19107
0.7868 1.27173
0.7875 1.28713
0.7883 1.24054
0.7890 1.18265
0.7897 1.16326
0.7905 1.14787
0.7912 1.15540
0.7919 1.09840
0.7927 1.17699
0.7934 1.17072
0.7941 1.13513
0.7949 1.26072
0.7956 1.26089
0.7964 1.17072
0.7971 1.19350
0.7978 1.14461
0.7986 1.11338
0.7993 1.14183
0.8000 1.19773
0.8008 1.14732
0.8015 1.24093
0.8022 1.14732
0.8030 1.24439
0.8037 1.10067
0.8044 1.05036
0.8052 1.08936
0.8059 1.14183
0.8067 1.14732
0.8074 1.14095
0.8081 1.15763
0.8089 1.14880
0.8096 1.09308
0.8103 1.14095
0.8111 1.13504
0.8118 1.17476
0.8125 1.12726
0.8133 1.20955
0.8140 1.11590
0.8147 1.10187
0.8155 1.07771
0.8162 1.13307
0.8170 1.09275
0.8177 1.14375
0.8184 1.03791
0.8192 1.04635
0.8199 1.11671
0.8206 1.18056
0.8214 1.09115
0.8221 1.09318
0.8228 1.09318
0.8236 1.09275
0.8243 1.15084
0.8250 1.08287
0.8258 1.05855
0.8265 1.09631
0.8273 1.08098
0.8280 1.07725
0.8287 1.12983
0.8295 1.08268
0.8302 1.08045
0.8309 1.07527
0.8317 1.06593
0.8324 1.07538
0.8331 1.09769
0.8339 1.10207
0.8346 1.05692
0.8353 1.02017
0.8361 1.12810
0.8368 1.10012
0.8376 1.14126
0.8383 1.12370
0.8390 1.08569
0.8398 1.00558
0.8405 1.10012
0.8412 1.14596
0.8420 1.02740
0.8427 1.06665
0.8434 1.09275
0.8442 1.12586
0.8449 1.11295
0.8456 1.13255
0.8464 1.15412
0.8471 1.09536
0.8479 1.00468
0.8486 1.09676
0.8493 1.04952
0.8501 1.11937
0.8508 1.11937
0.8515 1.18320
0.8523 1.06755
0.8530 1.17374
0.8537 1.10219
0.8545 1.09067
0.8552 1.11937
0.8559 1.14772
0.8567 1.20857
0.8574 1.10219
0.8582 1.16105
0.8589 1.10551
0.8596 1.10551
0.8604 1.13186
0.8611 1.09003
0.8618 1.06479
0.8626 1.09909
0.8633 1.14372
0.8640 1.18179
0.8648 1.18092
0.8655 1.10551
0.8662 1.00402
0.8670 1.09909
0.8677 1.07091
0.8685 1.10941
0.8692 1.03220
0.8699 1.06433
0.8707 1.09869
0.8714 1.09224
0.8721 1.16626
0.8729 1.15646
0.8736 1.12921
0.8743 1.08515
0.8751 1.08515
0.8758 1.08515
0.8765 1.08701
0.8773 1.08701
0.8780 1.08515
0.8788 1.07117
0.8795 1.04177
0.8802 1.00728
0.8810 1.07117
0.8817 1.03847
0.8824 1.08701
0.8832 1.03847
0.8839 0.98813
0.8846 0.92102
0.8854 1.04177
0.8861 0.93641
0.8868 0.98603
0.8876 0.95352
0.8883 1.10406
0.8891 1.03091
0.8898 0.99187
0.8905 1.05632
0.8913 1.01744
0.8920 0.99629
0.8927 1.03091
0.8935 1.02717
0.8942 1.05193
0.8949 1.05397
0.8957 1.05449
0.8964 0.92478
0.8971 1.01744
0.8979 0.98988
0.8986 0.93016
0.8994 0.92871
0.9001 1.05671
0.9008 1.07557
0.9016 0.94764
0.9023 0.88301
0.9030 1.01923
0.9038 0.92783
0.9045 0.94764
0.9052 0.94735
0.9060 0.94735
0.9067 0.94764
0.9074 0.95218
0.9082 0.94735
0.9089 0.85519
0.9097 0.94735
0.9104 0.91309
0.9111 0.92188
0.9119 1.05386
0.9126 1.05386
0.9133 1.05386
0.9141 0.97032
0.9148 0.91252
0.9155 0.97672
0.9163 1.03487
0.9170 1.05204
0.9177 1.05549
0.9185 1.05386
0.9192 1.11383
0.9200 1.08933
0.9207 0.97672
0.9214 1.07373
0.9222 1.07373
0.9229 1.03487
0.9236 1.05204
0.9244 1.10434
0.9251 1.12790
0.9258 1.07250
0.9266 1.07250
0.9273 1.10507
0.9280 1.02756
0.9288 1.03371
0.9295 1.05204
0.9303 1.15124
0.9310 1.03665
0.9317 0.95817
0.9325 1.04121
0.9332 1.08506
0.9339 1.09565
0.9347 1.04468
0.9354 0.96873
0.9361 1.03180
0.9369 1.11558
0.9376 1.04354
0.9383 1.02271
0.9391 1.04468
0.9398 1.06598
