Asteroid designations ( Number, Name, Temporary designation): 285944, -,  K01R11Z
Observation was done on (UT) (format YYYY-MM-DD-hh): 2014 - 08 - 21 - 00:50
Observation was made by : O. Vaduvescu; M. Popescu E-mail; ovidiu.vaduvescu@gmail.com;
At observatory with UAI code: 950
Obsv. comments: INT/IDS; If this spectrum is usefull please contact: ovidiu.vaduvescu@gmail.com; mpopescu@imcce.fr
The spectrum was published in the article: Unpublished; Contact:mpopescu@imcce.fr
The normalization of this spectrum was made for the wavelength: 0.550 microns.
Original name of the file was: 285944vshd239928.txt
Wavelength[um]	Reflectance	sigma(optional)
0.3504000 0.39319 0.02538
0.3508000 0.40809 0.02523
0.3512000 0.41756 0.02415
0.3516000 0.35323 0.02382
0.3520000 0.36231 0.02527
0.3524000 0.36971 0.02416
0.3528000 0.39546 0.02187
0.3532000 0.42131 0.02434
0.3536000 0.43108 0.02345
0.3540000 0.41460 0.02351
0.3544000 0.41145 0.02058
0.3548000 0.37158 0.02112
0.3552000 0.42388 0.02165
0.3556000 0.46660 0.02344
0.3561000 0.42121 0.02302
0.3565000 0.41066 0.02424
0.3569000 0.36991 0.02460
0.3573000 0.37602 0.02532
0.3577000 0.38214 0.02384
0.3581000 0.38688 0.02411
0.3585000 0.39151 0.02439
0.3589000 0.40187 0.02466
0.3593000 0.41223 0.02287
0.3597000 0.42259 0.01954
0.3601000 0.41835 0.02030
0.3605000 0.41411 0.02312
0.3609000 0.40987 0.02357
0.3613000 0.42309 0.02273
0.3617000 0.44381 0.02189
0.3621000 0.48012 0.02106
0.3625000 0.45861 0.02022
0.3629000 0.50301 0.02118
0.3633000 0.46147 0.01866
0.3638000 0.44746 0.02035
0.3642000 0.42329 0.01919
0.3646000 0.49788 0.01847
0.3650000 0.41894 0.01792
0.3654000 0.48594 0.01809
0.3658000 0.49018 0.01465
0.3662000 0.45969 0.01495
0.3666000 0.50350 0.01513
0.3670000 0.47351 0.01627
0.3674000 0.46818 0.01564
0.3678000 0.46285 0.01596
0.3682000 0.53162 0.01602
0.3686000 0.51485 0.01674
0.3690000 0.48041 0.01415
0.3694000 0.48446 0.01433
0.3698000 0.47242 0.01274
0.3702000 0.43897 0.01375
0.3706000 0.46946 0.01333
0.3710000 0.48446 0.01343
0.3715000 0.46354 0.01322
0.3719000 0.44036 0.01186
0.3723000 0.48387 0.01463
0.3727000 0.52738 0.01397
0.3731000 0.48752 0.01384
0.3735000 0.48456 0.01559
0.3739000 0.51465 0.01487
0.3743000 0.50627 0.01502
0.3747000 0.49788 0.01331
0.3751000 0.54820 0.01299
0.3755000 0.52294 0.01177
0.3759000 0.46542 0.01223
0.3763000 0.50577 0.01153
0.3767000 0.52570 0.01215
0.3771000 0.53291 0.01019
0.3775000 0.53439 0.00864
0.3779000 0.50863 0.00899
0.3783000 0.50084 0.00933
0.3788000 0.50005 0.00918
0.3792000 0.54632 0.00945
0.3796000 0.51179 0.01085
0.3800000 0.51248 0.00974
0.3804000 0.51436 0.00797
0.3808000 0.52778 0.00860
0.3812000 0.54869 0.00855
0.3816000 0.53034 0.01088
0.3820000 0.48446 0.00986
0.3824000 0.48860 0.01082
0.3828000 0.51475 0.01348
0.3832000 0.51682 0.01302
0.3836000 0.54060 0.01175
0.3840000 0.51850 0.01048
0.3844000 0.55747 0.00920
0.3848000 0.54672 0.00898
0.3852000 0.49295 0.00843
0.3857000 0.50192 0.00875
0.3861000 0.51367 0.00813
0.3865000 0.50370 0.00772
0.3869000 0.49857 0.00721
0.3873000 0.53744 0.00686
0.3877000 0.52896 0.00724
0.3881000 0.55708 0.00813
0.3885000 0.57208 0.00755
0.3889000 0.58125 0.00772
0.3893000 0.57750 0.00733
0.3897000 0.54179 0.00642
0.3901000 0.54692 0.00625
0.3905000 0.58865 0.00666
0.3909000 0.60691 0.00653
0.3913000 0.55392 0.00523
0.3917000 0.57296 0.00614
0.3921000 0.56152 0.00660
0.3925000 0.56695 0.00898
0.3930000 0.57425 0.01137
0.3934000 0.58145 0.01123
0.3938000 0.58865 0.01109
0.3942000 0.59201 0.00774
0.3946000 0.55955 0.00589
0.3950000 0.57523 0.00532
0.3954000 0.58717 0.00524
0.3958000 0.60030 0.00622
0.3962000 0.56438 0.00740
0.3966000 0.57020 0.00973
0.3970000 0.63611 0.01028
0.3974000 0.62269 0.00743
0.3978000 0.59862 0.00524
0.3982000 0.60977 0.00466
0.3986000 0.59408 0.00458
0.3990000 0.62565 0.00424
0.3994000 0.57849 0.00422
0.3999000 0.62595 0.00397
0.4003000 0.61579 0.00395
0.4007000 0.61095 0.00362
0.4011000 0.60858 0.00361
0.4015000 0.63868 0.00364
0.4019000 0.62536 0.00350
0.4023000 0.62289 0.00350
0.4027000 0.59704 0.00341
0.4031000 0.62181 0.00395
0.4035000 0.61914 0.00391
0.4039000 0.64499 0.00331
0.4043000 0.64164 0.00350
0.4047000 0.64371 0.00368
0.4051000 0.60020 0.00333
0.4055000 0.61914 0.00335
0.4059000 0.62200 0.00328
0.4063000 0.66571 0.00346
0.4068000 0.64302 0.00340
0.4072000 0.63572 0.00342
0.4076000 0.64785 0.00329
0.4080000 0.63868 0.00308
0.4084000 0.63542 0.00325
0.4088000 0.65279 0.00305
0.4092000 0.64470 0.00292
0.4096000 0.67301 0.00343
0.4100000 0.67785 0.00362
0.4104000 0.67104 0.00345
0.4108000 0.66433 0.00324
0.4112000 0.65624 0.00281
0.4116000 0.66502 0.00280
0.4120000 0.69630 0.00278
0.4124000 0.65634 0.00269
0.4128000 0.66719 0.00294
0.4133000 0.63266 0.00283
0.4137000 0.64105 0.00282
0.4141000 0.63473 0.00280
0.4145000 0.63868 0.00268
0.4149000 0.65851 0.00306
0.4153000 0.65072 0.00273
0.4157000 0.66542 0.00260
0.4161000 0.67124 0.00275
0.4165000 0.64026 0.00259
0.4169000 0.64805 0.00262
0.4173000 0.63572 0.00254
0.4177000 0.67874 0.00305
0.4181000 0.66009 0.00287
0.4185000 0.66088 0.00269
0.4189000 0.65318 0.00251
0.4193000 0.65752 0.00287
0.4198000 0.69018 0.00252
0.4202000 0.67785 0.00290
0.4206000 0.69058 0.00252
0.4210000 0.68594 0.00241
0.4214000 0.69314 0.00231
0.4218000 0.68367 0.00233
0.4222000 0.62891 0.00269
0.4226000 0.68081 0.00242
0.4230000 0.64381 0.00234
0.4234000 0.67745 0.00243
0.4238000 0.67390 0.00232
0.4242000 0.69817 0.00247
0.4246000 0.67242 0.00233
0.4250000 0.69699 0.00242
0.4254000 0.68209 0.00243
0.4258000 0.67449 0.00250
0.4263000 0.69137 0.00242
0.4267000 0.66334 0.00222
0.4271000 0.66601 0.00234
0.4275000 0.69068 0.00264
0.4279000 0.68130 0.00235
0.4283000 0.68841 0.00238
0.4287000 0.66769 0.00256
0.4291000 0.67745 0.00272
0.4295000 0.68752 0.00299
0.4299000 0.67755 0.00291
0.4303000 0.66561 0.00325
0.4307000 0.66305 0.00309
0.4311000 0.69975 0.00266
0.4315000 0.73093 0.00241
0.4319000 0.69235 0.00205
0.4323000 0.71574 0.00228
0.4328000 0.73014 0.00220
0.4332000 0.72531 0.00191
0.4336000 0.71663 0.00242
0.4340000 0.74119 0.00224
0.4344000 0.76182 0.00232
0.4348000 0.70064 0.00197
0.4352000 0.72057 0.00206
0.4356000 0.70321 0.00199
0.4360000 0.71692 0.00191
0.4364000 0.71041 0.00198
0.4368000 0.70686 0.00189
0.4372000 0.73281 0.00195
0.4376000 0.68229 0.00204
0.4380000 0.70143 0.00223
0.4384000 0.74228 0.00221
0.4389000 0.74623 0.00210
0.4393000 0.72876 0.00198
0.4397000 0.73823 0.00209
0.4401000 0.72087 0.00198
0.4405000 0.73853 0.00184
0.4409000 0.73902 0.00196
0.4413000 0.74040 0.00195
0.4417000 0.71307 0.00176
0.4421000 0.71593 0.00171
0.4425000 0.75649 0.00172
0.4429000 0.78875 0.00177
0.4433000 0.72580 0.00170
0.4437000 0.74504 0.00171
0.4441000 0.75747 0.00172
0.4445000 0.75935 0.00168
0.4450000 0.75580 0.00167
0.4454000 0.75935 0.00180
0.4458000 0.73754 0.00186
0.4462000 0.74948 0.00173
0.4466000 0.77168 0.00163
0.4470000 0.73192 0.00157
0.4474000 0.76507 0.00164
0.4478000 0.77859 0.00172
0.4482000 0.76112 0.00157
0.4486000 0.76389 0.00160
0.4490000 0.75205 0.00157
0.4494000 0.75303 0.00154
0.4498000 0.76537 0.00158
0.4502000 0.76971 0.00150
0.4506000 0.74623 0.00145
0.4511000 0.76981 0.00152
0.4515000 0.77237 0.00146
0.4519000 0.77908 0.00152
0.4523000 0.74652 0.00158
0.4527000 0.78846 0.00165
0.4531000 0.77109 0.00166
0.4535000 0.78017 0.00149
0.4539000 0.75974 0.00143
0.4543000 0.78293 0.00156
0.4547000 0.78757 0.00159
0.4551000 0.77908 0.00152
0.4555000 0.80839 0.00160
0.4559000 0.77316 0.00150
0.4563000 0.79349 0.00153
0.4567000 0.78510 0.00148
0.4572000 0.79102 0.00149
0.4576000 0.77987 0.00147
0.4580000 0.78816 0.00135
0.4584000 0.79882 0.00152
0.4588000 0.78915 0.00158
0.4592000 0.77622 0.00147
0.4596000 0.77652 0.00143
0.4600000 0.79911 0.00156
0.4604000 0.80858 0.00152
0.4608000 0.79339 0.00139
0.4612000 0.80789 0.00147
0.4616000 0.82625 0.00152
0.4620000 0.80335 0.00140
0.4624000 0.79467 0.00140
0.4629000 0.81658 0.00132
0.4633000 0.80257 0.00135
0.4637000 0.78934 0.00132
0.4641000 0.80898 0.00137
0.4645000 0.80819 0.00154
0.4649000 0.79743 0.00146
0.4653000 0.78747 0.00146
0.4657000 0.82033 0.00142
0.4661000 0.79526 0.00149
0.4665000 0.79398 0.00156
0.4669000 0.80355 0.00140
0.4673000 0.80750 0.00141
0.4677000 0.81667 0.00137
0.4681000 0.80503 0.00141
0.4685000 0.77533 0.00133
0.4690000 0.79862 0.00137
0.4694000 0.82437 0.00132
0.4698000 0.81776 0.00139
0.4702000 0.81737 0.00153
0.4706000 0.82437 0.00142
0.4710000 0.81371 0.00136
0.4714000 0.81016 0.00125
0.4718000 0.81746 0.00135
0.4722000 0.82348 0.00133
0.4726000 0.83226 0.00137
0.4730000 0.83217 0.00130
0.4734000 0.82269 0.00121
0.4738000 0.83848 0.00139
0.4742000 0.84154 0.00138
0.4747000 0.82654 0.00126
0.4751000 0.83029 0.00128
0.4755000 0.82723 0.00129
0.4759000 0.83897 0.00133
0.4763000 0.82437 0.00124
0.4767000 0.81648 0.00135
0.4771000 0.83611 0.00124
0.4775000 0.81135 0.00128
0.4779000 0.82141 0.00126
0.4783000 0.83108 0.00129
0.4787000 0.84361 0.00136
0.4791000 0.85229 0.00119
0.4795000 0.84706 0.00122
0.4799000 0.84628 0.00122
0.4804000 0.84539 0.00121
0.4808000 0.84401 0.00122
0.4812000 0.86325 0.00118
0.4816000 0.86196 0.00127
0.4820000 0.82980 0.00119
0.4824000 0.85723 0.00121
0.4828000 0.85713 0.00125
0.4832000 0.83769 0.00120
0.4836000 0.86640 0.00121
0.4840000 0.84874 0.00120
0.4844000 0.85999 0.00135
0.4848000 0.84361 0.00121
0.4852000 0.87805 0.00138
0.4856000 0.87647 0.00163
0.4861000 0.88170 0.00157
0.4865000 0.86877 0.00139
0.4869000 0.86848 0.00146
0.4873000 0.86729 0.00134
0.4877000 0.86157 0.00122
0.4881000 0.87686 0.00128
0.4885000 0.85683 0.00121
0.4889000 0.86769 0.00124
0.4893000 0.86186 0.00112
0.4897000 0.86561 0.00125
0.4901000 0.85673 0.00115
0.4905000 0.88426 0.00121
0.4909000 0.86700 0.00124
0.4914000 0.88525 0.00119
0.4918000 0.87025 0.00132
0.4922000 0.85693 0.00115
0.4926000 0.86966 0.00109
0.4930000 0.87015 0.00122
0.4934000 0.87094 0.00116
0.4938000 0.87647 0.00124
0.4942000 0.89147 0.00123
0.4946000 0.87893 0.00112
0.4950000 0.89166 0.00122
0.4954000 0.87440 0.00126
0.4958000 0.87351 0.00126
0.4962000 0.86571 0.00117
0.4966000 0.88801 0.00116
0.4971000 0.89561 0.00115
0.4975000 0.87321 0.00122
0.4979000 0.89729 0.00118
0.4983000 0.88367 0.00129
0.4987000 0.88929 0.00115
0.4991000 0.88140 0.00105
0.4995000 0.88712 0.00108
0.4999000 0.90311 0.00118
0.5003000 0.88061 0.00122
0.5007000 0.87074 0.00122
0.5011000 0.87775 0.00118
0.5015000 0.87913 0.00127
0.5019000 0.89285 0.00118
0.5024000 0.89117 0.00113
0.5028000 0.89492 0.00126
0.5032000 0.88407 0.00114
0.5036000 0.89403 0.00124
0.5040000 0.88712 0.00123
0.5044000 0.87262 0.00118
0.5048000 0.88091 0.00108
0.5052000 0.86769 0.00119
0.5056000 0.89008 0.00123
0.5060000 0.88199 0.00117
0.5064000 0.88091 0.00113
0.5068000 0.87449 0.00114
0.5072000 0.88870 0.00118
0.5077000 0.88051 0.00124
0.5081000 0.89156 0.00113
0.5085000 0.87647 0.00111
0.5089000 0.90183 0.00115
0.5093000 0.88939 0.00109
0.5097000 0.89354 0.00120
0.5101000 0.89946 0.00114
0.5105000 0.89255 0.00122
0.5109000 0.88959 0.00118
0.5113000 0.89936 0.00113
0.5117000 0.89413 0.00111
0.5121000 0.90548 0.00119
0.5125000 0.91357 0.00117
0.5130000 0.91524 0.00110
0.5134000 0.91337 0.00114
0.5138000 0.92324 0.00116
0.5142000 0.92116 0.00123
0.5146000 0.93133 0.00121
0.5150000 0.91386 0.00111
0.5154000 0.91771 0.00108
0.5158000 0.92926 0.00114
0.5162000 0.91475 0.00115
0.5166000 0.89946 0.00135
0.5170000 0.89788 0.00127
0.5174000 0.91159 0.00120
0.5178000 0.92975 0.00127
0.5183000 0.90765 0.00126
0.5187000 0.91011 0.00124
0.5191000 0.92580 0.00118
0.5195000 0.94504 0.00117
0.5199000 0.93794 0.00116
0.5203000 0.93863 0.00112
0.5207000 0.95185 0.00110
0.5211000 0.94652 0.00119
0.5215000 0.94909 0.00107
0.5219000 0.95491 0.00125
0.5223000 0.95491 0.00126
0.5227000 0.96241 0.00116
0.5231000 0.96478 0.00118
0.5236000 0.96438 0.00113
0.5240000 0.95846 0.00112
0.5244000 0.95126 0.00106
0.5248000 0.94504 0.00109
0.5252000 0.96793 0.00104
0.5256000 0.97375 0.00111
0.5260000 0.97099 0.00117
0.5264000 0.95254 0.00128
0.5268000 0.93044 0.00123
0.5272000 0.95215 0.00119
0.5276000 0.98263 0.00106
0.5280000 0.95116 0.00108
0.5285000 0.95994 0.00103
0.5289000 0.96172 0.00104
0.5293000 0.96704 0.00102
0.5297000 0.96951 0.00101
0.5301000 0.97464 0.00111
0.5305000 0.95935 0.00102
0.5309000 0.97277 0.00108
0.5313000 0.96556 0.00105
0.5317000 0.98046 0.00104
0.5321000 0.97198 0.00107
0.5325000 0.97494 0.00112
0.5329000 0.96468 0.00108
0.5333000 0.97681 0.00109
0.5338000 0.97602 0.00111
0.5342000 0.97208 0.00107
0.5346000 0.97366 0.00113
0.5350000 0.95846 0.00107
0.5354000 0.97454 0.00102
0.5358000 0.99181 0.00112
0.5362000 0.97928 0.00109
0.5366000 0.96024 0.00112
0.5370000 0.98707 0.00117
0.5374000 0.98559 0.00108
0.5378000 0.97790 0.00101
0.5382000 0.97741 0.00104
0.5387000 0.98263 0.00110
0.5391000 0.98875 0.00114
0.5395000 0.97533 0.00108
0.5399000 0.95688 0.00112
0.5403000 0.97346 0.00119
0.5407000 0.98106 0.00112
0.5411000 0.98234 0.00117
0.5415000 0.96774 0.00117
0.5419000 0.98086 0.00108
0.5423000 0.98905 0.00111
0.5427000 0.96635 0.00107
0.5431000 0.98027 0.00114
0.5436000 0.97622 0.00106
0.5440000 0.98263 0.00104
0.5444000 0.96862 0.00095
0.5448000 0.96478 0.00097
0.5452000 0.97326 0.00113
0.5456000 0.99901 0.00105
0.5460000 0.97405 0.00099
0.5464000 0.99349 0.00101
0.5468000 0.99438 0.00108
0.5472000 0.97967 0.00114
0.5476000 0.98254 0.00112
0.5480000 0.99694 0.00110
0.5485000 0.98263 0.00110
0.5489000 0.99142 0.00104
0.5493000 0.98944 0.00104
0.5497000 0.98145 0.00096
0.5501000 1.00000 0.00110
0.5505000 0.99447 0.00108
0.5509000 0.97879 0.00106
0.5513000 0.98757 0.00107
0.5517000 0.97790 0.00109
0.5521000 0.98500 0.00104
0.5525000 0.97247 0.00105
0.5529000 0.98974 0.00105
0.5534000 0.98954 0.00102
0.5538000 0.98638 0.00106
0.5542000 0.99250 0.00102
0.5546000 0.98362 0.00111
0.5550000 0.99891 0.00101
0.5554000 1.00049 0.00097
0.5558000 1.00049 0.00110
0.5562000 1.01756 0.00105
0.5566000 1.00296 0.00129
0.5570000 1.00513 0.00176
0.5574000 1.00000 0.00173
0.5578000 0.99349 0.00162
0.5583000 0.99970 0.00141
0.5587000 0.98846 0.00112
0.5591000 1.00089 0.00109
0.5595000 1.01342 0.00105
0.5599000 1.00779 0.00108
0.5603000 1.00405 0.00098
0.5607000 1.01362 0.00116
0.5611000 0.98619 0.00104
0.5615000 1.01263 0.00110
0.5619000 1.01559 0.00102
0.5623000 1.01293 0.00104
0.5627000 1.00849 0.00111
0.5632000 1.02082 0.00115
0.5636000 1.00770 0.00106
0.5640000 0.99595 0.00109
0.5644000 1.01253 0.00104
0.5648000 1.00957 0.00104
0.5652000 1.03897 0.00113
0.5656000 1.01697 0.00115
0.5660000 1.00799 0.00106
0.5664000 1.01381 0.00102
0.5668000 1.02782 0.00109
0.5672000 1.01105 0.00106
0.5676000 1.03611 0.00105
0.5681000 1.01934 0.00104
0.5685000 1.01569 0.00111
0.5689000 1.02062 0.00106
0.5693000 1.03177 0.00102
0.5697000 1.03542 0.00107
0.5701000 1.02151 0.00109
0.5705000 1.03759 0.00102
0.5709000 1.00819 0.00111
0.5713000 1.02950 0.00103
0.5717000 1.02625 0.00095
0.5721000 1.02911 0.00106
0.5726000 1.02684 0.00100
0.5730000 1.02782 0.00110
0.5734000 1.01658 0.00099
0.5738000 1.00543 0.00096
0.5742000 1.03670 0.00106
0.5746000 1.04095 0.00105
0.5750000 1.02713 0.00112
0.5754000 1.01697 0.00106
0.5758000 1.02713 0.00106
0.5762000 1.02348 0.00108
0.5766000 1.03828 0.00104
0.5770000 1.05308 0.00109
0.5775000 1.02753 0.00110
0.5779000 1.03927 0.00101
0.5783000 1.02348 0.00102
0.5787000 1.03138 0.00103
0.5791000 1.03838 0.00110
0.5795000 1.01391 0.00102
0.5799000 1.03197 0.00100
0.5803000 1.04361 0.00106
0.5807000 1.03818 0.00103
0.5811000 1.01993 0.00103
0.5815000 1.03088 0.00099
0.5820000 1.05101 0.00094
0.5824000 1.04361 0.00103
0.5828000 1.04618 0.00100
0.5832000 1.05249 0.00094
0.5836000 1.03355 0.00095
0.5840000 1.04785 0.00102
0.5844000 1.04184 0.00106
0.5848000 1.05673 0.00102
0.5852000 1.05683 0.00106
0.5856000 1.05812 0.00108
0.5860000 1.02733 0.00101
0.5865000 1.03098 0.00109
0.5869000 1.04134 0.00104
0.5873000 1.05160 0.00105
0.5877000 1.04845 0.00105
0.5881000 1.05525 0.00143
0.5885000 1.04410 0.00164
0.5889000 1.02477 0.00185
0.5893000 1.02407 0.00174
0.5897000 1.03315 0.00142
0.5901000 1.03601 0.00104
0.5905000 1.04420 0.00111
0.5910000 1.04637 0.00107
0.5914000 1.04223 0.00099
0.5918000 1.05289 0.00108
0.5922000 1.06946 0.00110
0.5926000 1.03878 0.00112
0.5930000 1.04894 0.00109
0.5934000 1.04401 0.00111
0.5938000 1.04105 0.00110
0.5942000 1.03631 0.00112
0.5946000 1.05032 0.00111
0.5950000 1.04489 0.00106
0.5955000 1.04736 0.00101
0.5959000 1.05476 0.00103
0.5963000 1.04677 0.00107
0.5967000 1.04282 0.00103
0.5971000 1.05072 0.00101
0.5975000 1.04815 0.00107
0.5979000 1.04785 0.00097
0.5983000 1.05831 0.00106
0.5987000 1.03976 0.00100
0.5991000 1.02082 0.00100
0.5995000 1.06561 0.00107
0.6000000 1.04993 0.00101
0.6004000 1.05220 0.00110
0.6008000 1.05437 0.00104
0.6012000 1.05624 0.00111
0.6016000 1.05249 0.00102
0.6020000 1.05565 0.00100
0.6024000 1.05910 0.00105
0.6028000 1.06552 0.00105
0.6032000 1.05999 0.00105
0.6036000 1.05654 0.00103
0.6040000 1.05239 0.00104
0.6045000 1.06650 0.00102
0.6049000 1.05131 0.00100
0.6053000 1.05476 0.00107
0.6057000 1.04450 0.00099
0.6061000 1.06236 0.00112
0.6065000 1.05752 0.00109
0.6069000 1.05160 0.00101
0.6073000 1.05229 0.00101
0.6077000 1.06986 0.00113
0.6081000 1.05437 0.00104
0.6085000 1.05062 0.00106
0.6090000 1.04410 0.00097
0.6094000 1.07538 0.00114
0.6098000 1.05190 0.00097
0.6102000 1.06127 0.00107
0.6106000 1.07627 0.00103
0.6110000 1.05575 0.00107
0.6114000 1.05782 0.00108
0.6118000 1.06256 0.00101
0.6122000 1.06561 0.00100
0.6126000 1.08199 0.00109
0.6130000 1.07972 0.00116
0.6135000 1.07588 0.00114
0.6139000 1.06117 0.00107
0.6143000 1.07252 0.00104
0.6147000 1.05723 0.00100
0.6151000 1.05387 0.00114
0.6155000 1.06019 0.00106
0.6159000 1.06246 0.00107
0.6163000 1.06058 0.00117
0.6167000 1.05506 0.00103
0.6171000 1.05022 0.00109
0.6175000 1.06542 0.00102
0.6180000 1.06285 0.00101
0.6184000 1.07193 0.00104
0.6188000 1.06315 0.00106
0.6192000 1.06196 0.00108
0.6196000 1.05703 0.00104
0.6200000 1.06196 0.00100
0.6204000 1.06167 0.00102
0.6208000 1.07706 0.00103
0.6212000 1.07074 0.00106
0.6216000 1.05229 0.00113
0.6221000 1.06117 0.00112
0.6225000 1.06029 0.00102
0.6229000 1.08337 0.00116
0.6233000 1.08407 0.00118
0.6237000 1.06601 0.00110
0.6241000 1.07548 0.00122
0.6245000 1.06621 0.00109
0.6249000 1.07351 0.00109
0.6253000 1.07420 0.00107
0.6257000 1.07183 0.00118
0.6261000 1.06996 0.00117
0.6266000 1.07528 0.00104
0.6270000 1.06453 0.00104
0.6274000 1.06917 0.00101
0.6278000 1.07597 0.00115
0.6282000 1.09107 0.00111
0.6286000 1.09087 0.00121
0.6290000 1.10113 0.00119
0.6294000 1.08633 0.00118
0.6298000 1.06690 0.00123
0.6302000 1.07262 0.00113
0.6307000 1.08841 0.00108
0.6311000 1.07706 0.00106
0.6315000 1.08505 0.00105
0.6319000 1.08150 0.00111
0.6323000 1.06334 0.00109
0.6327000 1.06966 0.00106
0.6331000 1.08170 0.00113
0.6335000 1.06265 0.00111
0.6339000 1.07844 0.00110
0.6343000 1.07913 0.00108
0.6348000 1.08555 0.00101
0.6352000 1.09008 0.00112
0.6356000 1.08130 0.00118
0.6360000 1.08308 0.00121
0.6364000 1.09068 0.00120
0.6368000 1.09058 0.00103
0.6372000 1.08693 0.00113
0.6376000 1.07272 0.00104
0.6380000 1.09403 0.00113
0.6384000 1.09482 0.00107
0.6388000 1.09512 0.00111
0.6393000 1.09472 0.00114
0.6397000 1.09719 0.00115
0.6401000 1.09117 0.00113
0.6405000 1.08505 0.00107
0.6409000 1.08594 0.00106
0.6413000 1.08091 0.00106
0.6417000 1.09719 0.00114
0.6421000 1.07785 0.00103
0.6425000 1.09383 0.00105
0.6429000 1.08239 0.00100
0.6434000 1.07390 0.00110
0.6438000 1.09591 0.00107
0.6442000 1.08485 0.00109
0.6446000 1.09946 0.00112
0.6450000 1.09699 0.00112
0.6454000 1.09265 0.00112
0.6458000 1.09896 0.00114
0.6462000 1.08594 0.00118
0.6466000 1.09502 0.00112
0.6470000 1.10054 0.00117
0.6475000 1.07696 0.00112
0.6479000 1.08742 0.00111
0.6483000 1.08801 0.00101
0.6487000 1.09729 0.00114
0.6491000 1.09817 0.00118
0.6495000 1.08140 0.00123
0.6499000 1.05802 0.00111
0.6503000 1.09295 0.00111
0.6507000 1.09975 0.00111
0.6511000 1.10518 0.00115
0.6516000 1.10982 0.00109
0.6520000 1.08762 0.00115
0.6524000 1.09087 0.00108
0.6528000 1.09295 0.00114
0.6532000 1.10883 0.00114
0.6536000 1.09255 0.00115
0.6540000 1.08811 0.00112
0.6544000 1.09443 0.00122
0.6548000 1.11317 0.00115
0.6552000 1.13794 0.00137
0.6557000 1.13675 0.00139
0.6561000 1.10696 0.00143
0.6565000 1.06433 0.00126
0.6569000 1.09364 0.00121
0.6573000 1.09137 0.00117
0.6577000 1.09985 0.00113
0.6581000 1.10696 0.00121
0.6585000 1.11357 0.00106
0.6589000 1.10508 0.00113
0.6593000 1.09028 0.00108
0.6598000 1.10133 0.00113
0.6602000 1.09758 0.00115
0.6606000 1.09561 0.00110
0.6610000 1.07745 0.00107
0.6614000 1.10094 0.00097
0.6618000 1.09383 0.00095
0.6622000 1.09443 0.00107
0.6626000 1.11130 0.00110
0.6630000 1.10202 0.00107
0.6634000 1.08722 0.00105
0.6639000 1.10143 0.00116
0.6643000 1.09581 0.00098
0.6647000 1.10587 0.00106
0.6651000 1.11791 0.00106
0.6655000 1.11495 0.00108
0.6659000 1.11702 0.00112
0.6663000 1.11840 0.00111
0.6667000 1.10587 0.00117
0.6671000 1.10291 0.00123
0.6675000 1.10972 0.00129
0.6680000 1.11071 0.00135
0.6684000 1.11021 0.00107
0.6688000 1.11278 0.00106
0.6692000 1.10617 0.00109
0.6696000 1.11159 0.00109
0.6700000 1.10094 0.00112
0.6704000 1.10814 0.00113
0.6708000 1.10321 0.00109
0.6712000 1.11228 0.00107
0.6716000 1.10636 0.00119
0.6721000 1.10321 0.00111
0.6725000 1.09403 0.00105
0.6729000 1.10903 0.00111
0.6733000 1.10439 0.00105
0.6737000 1.10597 0.00108
0.6741000 1.10104 0.00115
0.6745000 1.10932 0.00110
0.6749000 1.11732 0.00112
0.6753000 1.09857 0.00110
0.6758000 1.10646 0.00105
0.6762000 1.11564 0.00123
0.6766000 1.11347 0.00110
0.6770000 1.12580 0.00108
0.6774000 1.11692 0.00114
0.6778000 1.12699 0.00114
0.6782000 1.10400 0.00107
0.6786000 1.09531 0.00112
0.6790000 1.10439 0.00107
0.6794000 1.10962 0.00111
0.6799000 1.11791 0.00110
0.6803000 1.10617 0.00113
0.6807000 1.11870 0.00104
0.6811000 1.12215 0.00107
0.6815000 1.10883 0.00108
0.6819000 1.11722 0.00115
0.6823000 1.10735 0.00135
0.6827000 1.12797 0.00122
0.6831000 1.12758 0.00122
0.6836000 1.12481 0.00125
0.6840000 1.11357 0.00116
0.6844000 1.12116 0.00114
0.6848000 1.11524 0.00116
0.6852000 1.11870 0.00118
0.6856000 1.10261 0.00123
0.6860000 1.10054 0.00128
0.6864000 1.11988 0.00147
0.6868000 1.12639 0.00149
0.6872000 1.10765 0.00141
0.6877000 1.10232 0.00138
0.6881000 1.11209 0.00119
0.6885000 1.09817 0.00127
0.6889000 1.10636 0.00132
0.6893000 1.12491 0.00134
0.6897000 1.10212 0.00125
0.6901000 1.10192 0.00133
0.6905000 1.10607 0.00123
0.6909000 1.11268 0.00128
0.6914000 1.13044 0.00122
0.6918000 1.11288 0.00128
0.6922000 1.11149 0.00132
0.6926000 1.11811 0.00125
0.6930000 1.11396 0.00120
0.6934000 1.13231 0.00123
0.6938000 1.11870 0.00121
0.6942000 1.10982 0.00129
0.6946000 1.12294 0.00130
0.6950000 1.11968 0.00126
0.6955000 1.12856 0.00122
0.6959000 1.12965 0.00111
0.6963000 1.12462 0.00119
0.6967000 1.13123 0.00115
0.6971000 1.13261 0.00125
0.6975000 1.12215 0.00135
0.6979000 1.10784 0.00126
0.6983000 1.12018 0.00124
0.6987000 1.11199 0.00117
0.6992000 1.11761 0.00120
0.6996000 1.11297 0.00130
0.7000000 1.10715 0.00137
0.7004000 1.10567 0.00127
0.7008000 1.10015 0.00119
0.7012000 1.13261 0.00125
0.7016000 1.11949 0.00127
0.7020000 1.11850 0.00124
0.7024000 1.12560 0.00123
0.7028000 1.11949 0.00127
0.7033000 1.13310 0.00132
0.7037000 1.10715 0.00116
0.7041000 1.11988 0.00128
0.7045000 1.12284 0.00123
0.7049000 1.11258 0.00122
0.7053000 1.12373 0.00121
0.7057000 1.10834 0.00118
0.7061000 1.12107 0.00112
0.7065000 1.10567 0.00120
0.7070000 1.12827 0.00122
0.7074000 1.12560 0.00122
0.7078000 1.13744 0.00118
0.7082000 1.12422 0.00119
0.7086000 1.12768 0.00124
0.7090000 1.10508 0.00121
0.7094000 1.12975 0.00115
0.7098000 1.12679 0.00123
0.7102000 1.12689 0.00124
0.7107000 1.12866 0.00120
0.7111000 1.13054 0.00130
0.7115000 1.13843 0.00120
0.7119000 1.11889 0.00126
0.7123000 1.12807 0.00117
0.7127000 1.14850 0.00120
0.7131000 1.11406 0.00128
0.7135000 1.13971 0.00122
0.7139000 1.13093 0.00124
0.7144000 1.12856 0.00126
0.7148000 1.12107 0.00132
0.7152000 1.11544 0.00128
0.7156000 1.12215 0.00123
0.7160000 1.13468 0.00139
0.7164000 1.13044 0.00138
0.7168000 1.11998 0.00144
0.7172000 1.12570 0.00151
0.7176000 1.10903 0.00148
0.7181000 1.12462 0.00156
0.7185000 1.12264 0.00162
0.7189000 1.10982 0.00153
0.7193000 1.10212 0.00157
0.7197000 1.10321 0.00163
0.7201000 1.09926 0.00153
0.7205000 1.10084 0.00135
0.7209000 1.11071 0.00131
0.7213000 1.11436 0.00134
0.7218000 1.11978 0.00127
0.7222000 1.10331 0.00138
0.7226000 1.12649 0.00143
0.7230000 1.11801 0.00159
0.7234000 1.12166 0.00175
0.7238000 1.10844 0.00182
0.7242000 1.11544 0.00192
0.7246000 1.10419 0.00187
0.7250000 1.12037 0.00158
0.7255000 1.10804 0.00149
0.7259000 1.11584 0.00152
0.7263000 1.12077 0.00145
0.7267000 1.12264 0.00174
0.7271000 1.11988 0.00179
0.7275000 1.12787 0.00201
0.7279000 1.08683 0.00173
0.7283000 1.10380 0.00174
0.7287000 1.11850 0.00158
0.7292000 1.10064 0.00148
0.7296000 1.08880 0.00154
0.7300000 1.12255 0.00162
0.7304000 1.11189 0.00152
0.7308000 1.12107 0.00187
0.7312000 1.11840 0.00176
0.7316000 1.11889 0.00167
0.7320000 1.10913 0.00148
0.7324000 1.13685 0.00150
0.7329000 1.10597 0.00149
0.7333000 1.10360 0.00166
0.7337000 1.11120 0.00161
0.7341000 1.12975 0.00171
0.7345000 1.12560 0.00163
0.7349000 1.12748 0.00158
0.7353000 1.13054 0.00164
0.7357000 1.11307 0.00152
0.7361000 1.10952 0.00159
0.7366000 1.11988 0.00157
0.7370000 1.10498 0.00164
0.7374000 1.11692 0.00134
0.7378000 1.10054 0.00128
0.7382000 1.11574 0.00145
0.7386000 1.09571 0.00149
0.7390000 1.10676 0.00160
0.7394000 1.09541 0.00171
0.7398000 1.10627 0.00146
0.7403000 1.08683 0.00153
0.7407000 1.10587 0.00146
0.7411000 1.09571 0.00128
0.7415000 1.10488 0.00139
0.7419000 1.09403 0.00140
0.7423000 1.10893 0.00144
0.7427000 1.11613 0.00143
0.7431000 1.09798 0.00150
0.7435000 1.10627 0.00153
0.7440000 1.11712 0.00143
0.7444000 1.10054 0.00142
0.7448000 1.11120 0.00137
0.7452000 1.09768 0.00133
0.7456000 1.10646 0.00138
0.7460000 1.09068 0.00147
0.7464000 1.09117 0.00133
0.7468000 1.10775 0.00148
0.7473000 1.09995 0.00140
0.7477000 1.10222 0.00149
0.7481000 1.12294 0.00153
0.7485000 1.10962 0.00157
0.7489000 1.11179 0.00150
0.7493000 1.09719 0.00144
0.7497000 1.09028 0.00130
0.7501000 1.09610 0.00145
0.7505000 1.11140 0.00142
0.7510000 1.09137 0.00144
0.7514000 1.10360 0.00161
0.7518000 1.10192 0.00165
0.7522000 1.10035 0.00175
0.7526000 1.10113 0.00169
0.7530000 1.10538 0.00156
0.7534000 1.09571 0.00141
0.7538000 1.09285 0.00137
0.7542000 1.10074 0.00135
0.7547000 1.08920 0.00148
0.7551000 1.11021 0.00152
0.7555000 1.07144 0.00140
0.7559000 1.10025 0.00152
0.7563000 1.09561 0.00164
0.7567000 1.07509 0.00156
0.7571000 1.08337 0.00149
0.7575000 1.09965 0.00159
0.7580000 1.09975 0.00149
0.7584000 1.07943 0.00148
0.7588000 1.08150 0.00173
0.7592000 1.09699 0.00227
0.7596000 1.06897 0.00360
0.7600000 1.04085 0.00468
0.7604000 1.00138 0.00421
0.7608000 1.02052 0.00317
0.7612000 1.02516 0.00243
0.7617000 1.04322 0.00204
0.7621000 1.08436 0.00233
0.7625000 1.06848 0.00283
0.7629000 1.05160 0.00271
0.7633000 1.04282 0.00250
0.7637000 1.05397 0.00211
0.7641000 1.04480 0.00219
0.7645000 1.05466 0.00210
0.7650000 1.07647 0.00195
0.7654000 1.04677 0.00202
0.7658000 1.06473 0.00181
0.7662000 1.08831 0.00175
0.7666000 1.06492 0.00172
0.7670000 1.05920 0.00167
0.7674000 1.04884 0.00149
0.7678000 1.05190 0.00162
0.7682000 1.05101 0.00151
0.7687000 1.07193 0.00156
0.7691000 1.07321 0.00163
0.7695000 1.04026 0.00165
0.7699000 1.05072 0.00152
0.7703000 1.05910 0.00176
0.7707000 1.02930 0.00201
0.7711000 1.05742 0.00210
0.7715000 1.06670 0.00203
0.7720000 1.05002 0.00189
0.7724000 1.04529 0.00165
0.7728000 1.05594 0.00163
0.7732000 1.04973 0.00165
0.7736000 1.06709 0.00167
0.7740000 1.05713 0.00172
0.7744000 1.03897 0.00196
0.7748000 1.05002 0.00204
0.7752000 1.02634 0.00205
0.7757000 1.02556 0.00167
0.7761000 1.03740 0.00176
0.7765000 1.04045 0.00175
0.7769000 1.06127 0.00178
0.7773000 1.03848 0.00184
0.7777000 1.04904 0.00174
0.7781000 1.01519 0.00171
0.7785000 1.02822 0.00216
0.7790000 1.03404 0.00185
0.7794000 1.02398 0.00183
0.7798000 1.03453 0.00190
0.7802000 1.04213 0.00171
0.7806000 1.02348 0.00179
0.7810000 1.02131 0.00172
0.7814000 1.03513 0.00203
0.7818000 1.02970 0.00194
0.7823000 1.01924 0.00205
0.7827000 1.03207 0.00182
0.7831000 1.03986 0.00185
0.7835000 1.00710 0.00186
0.7839000 1.04055 0.00188
0.7843000 1.02388 0.00201
0.7847000 0.99576 0.00216
0.7851000 1.01658 0.00235
0.7855000 1.02309 0.00232
0.7860000 1.01194 0.00208
0.7864000 1.01273 0.00221
0.7868000 1.03927 0.00224
0.7872000 0.99990 0.00222
0.7876000 1.00109 0.00196
0.7880000 0.99280 0.00207
0.7884000 0.98855 0.00190
0.7888000 0.99882 0.00209
0.7893000 0.99359 0.00207
0.7897000 0.99901 0.00176
0.7901000 0.98925 0.00171
0.7905000 1.00957 0.00212
0.7909000 0.99457 0.00234
0.7913000 0.98737 0.00249
0.7917000 1.00197 0.00236
0.7921000 0.99724 0.00216
0.7926000 1.00010 0.00204
0.7930000 0.99507 0.00203
0.7934000 0.96487 0.00190
0.7938000 0.98155 0.00182
0.7942000 0.98224 0.00200
0.7946000 0.96665 0.00202
0.7950000 0.98115 0.00199
0.7954000 0.97099 0.00210
0.7959000 0.96793 0.00244
0.7963000 0.97040 0.00244
0.7967000 0.96024 0.00217
0.7971000 0.95412 0.00198
0.7975000 0.96823 0.00205
0.7979000 0.97168 0.00226
0.7983000 0.96182 0.00213
0.7987000 0.99378 0.00215
0.7992000 0.96961 0.00243
0.7996000 0.98273 0.00238
0.8000000 0.96458 0.00201
0.8004000 0.96566 0.00191
0.8008000 0.96744 0.00199
0.8012000 0.93804 0.00193
0.8016000 0.95451 0.00234
0.8020000 0.96764 0.00228
0.8025000 0.95964 0.00245
0.8029000 0.95274 0.00217
0.8033000 0.93814 0.00196
0.8037000 0.93735 0.00178
0.8041000 0.95303 0.00194
0.8045000 0.96014 0.00216
0.8049000 0.93754 0.00200
0.8053000 0.96734 0.00204
0.8057000 0.94830 0.00222
0.8062000 0.94948 0.00204
0.8066000 0.95047 0.00216
0.8070000 0.93892 0.00194
0.8074000 0.93113 0.00168
0.8078000 0.93735 0.00203
0.8082000 0.94583 0.00195
0.8086000 0.92876 0.00198
0.8090000 0.94356 0.00190
0.8095000 0.91613 0.00197
0.8099000 0.91297 0.00201
0.8103000 0.90883 0.00204
0.8107000 0.92560 0.00192
0.8111000 0.90597 0.00202
0.8115000 0.92422 0.00188
0.8119000 0.93853 0.00208
0.8123000 0.91209 0.00203
0.8128000 0.90952 0.00218
0.8132000 0.92945 0.00242
0.8136000 0.88752 0.00225
0.8140000 0.89827 0.00229
0.8144000 0.93271 0.00236
0.8148000 0.90084 0.00237
0.8152000 0.89956 0.00230
0.8156000 0.88308 0.00235
0.8161000 0.89679 0.00240
0.8165000 0.88160 0.00222
0.8169000 0.86127 0.00220
0.8173000 0.88584 0.00236
0.8177000 0.89147 0.00220
0.8181000 0.87824 0.00238
0.8185000 0.88387 0.00249
0.8190000 0.87844 0.00239
0.8194000 0.87331 0.00225
0.8198000 0.86936 0.00225
0.8202000 0.86778 0.00218
0.8206000 0.88594 0.00210
0.8210000 0.89117 0.00226
0.8214000 0.87617 0.00242
0.8218000 0.88130 0.00231
0.8223000 0.86601 0.00252
0.8227000 0.88841 0.00285
0.8231000 0.86404 0.00275
0.8235000 0.86946 0.00232
0.8239000 0.87568 0.00237
0.8243000 0.88397 0.00227
0.8247000 0.86186 0.00220
0.8251000 0.85871 0.00234
0.8256000 0.86423 0.00219
0.8260000 0.85062 0.00209
0.8264000 0.86591 0.00239
0.8268000 0.84864 0.00236
0.8272000 0.86907 0.00265
0.8276000 0.84549 0.00307
0.8280000 0.86492 0.00308
0.8284000 0.86719 0.00331
0.8289000 0.85170 0.00319
0.8293000 0.84529 0.00291
0.8297000 0.84371 0.00288
0.8301000 0.84184 0.00300
0.8305000 0.84618 0.00278
0.8309000 0.84558 0.00230
0.8313000 0.83670 0.00252
0.8317000 0.83779 0.00250
0.8322000 0.84539 0.00230
0.8326000 0.83522 0.00234
0.8330000 0.82536 0.00228
0.8334000 0.85012 0.00243
0.8338000 0.83128 0.00365
0.8342000 0.83473 0.00347
0.8346000 0.83345 0.00356
0.8350000 0.83345 0.00296
0.8355000 0.84726 0.00280
0.8359000 0.81066 0.00258
0.8363000 0.81579 0.00251
0.8367000 0.80217 0.00228
0.8371000 0.83542 0.00229
0.8375000 0.80789 0.00251
0.8379000 0.80927 0.00250
0.8384000 0.82536 0.00247
0.8388000 0.81293 0.00237
0.8392000 0.80927 0.00289
0.8396000 0.80720 0.00334
0.8400000 0.80730 0.00292
0.8404000 0.81184 0.00278
0.8408000 0.80858 0.00251
0.8412000 0.82023 0.00244
0.8417000 0.79615 0.00255
0.8421000 0.80099 0.00269
0.8425000 0.81253 0.00317
0.8429000 0.81036 0.00354
0.8433000 0.81776 0.00289
0.8437000 0.79132 0.00230
0.8441000 0.79438 0.00222
0.8445000 0.79438 0.00259
0.8450000 0.80010 0.00271
0.8454000 0.79073 0.00263
0.8458000 0.80395 0.00272
0.8462000 0.79734 0.00308
0.8466000 0.80168 0.00298
0.8470000 0.76862 0.00247
0.8474000 0.79773 0.00247
0.8479000 0.80010 0.00209
0.8483000 0.79132 0.00247
0.8487000 0.79211 0.00231
0.8491000 0.79171 0.00282
0.8495000 0.80385 0.00293
0.8499000 0.77563 0.00266
0.8503000 0.76270 0.00273
0.8507000 0.78293 0.00246
0.8512000 0.78619 0.00231
0.8516000 0.76359 0.00216
0.8520000 0.79181 0.00232
0.8524000 0.79102 0.00230
0.8528000 0.79428 0.00241
0.8532000 0.81273 0.00257
0.8536000 0.82802 0.00303
0.8540000 0.78431 0.00279
0.8545000 0.73823 0.00289
0.8549000 0.73675 0.00268
0.8553000 0.76310 0.00256
0.8557000 0.78737 0.00235
0.8561000 0.76004 0.00207
0.8565000 0.77425 0.00225
0.8569000 0.76981 0.00239
0.8574000 0.77770 0.00231
0.8578000 0.76310 0.00241
0.8582000 0.75767 0.00212
0.8586000 0.77622 0.00246
0.8590000 0.76744 0.00214
0.8594000 0.77859 0.00248
0.8598000 0.75412 0.00225
0.8602000 0.77662 0.00225
0.8607000 0.77563 0.00247
0.8611000 0.73774 0.00257
0.8615000 0.75461 0.00272
0.8619000 0.75126 0.00287
0.8623000 0.75057 0.00275
0.8627000 0.74948 0.00289
0.8631000 0.76478 0.00285
0.8636000 0.75886 0.00293
0.8640000 0.76359 0.00269
0.8644000 0.75007 0.00280
0.8648000 0.75560 0.00283
0.8652000 0.78717 0.00322
0.8656000 0.78273 0.00352
0.8660000 0.72708 0.00360
0.8664000 0.71288 0.00318
0.8669000 0.72176 0.00286
0.8673000 0.73291 0.00260
0.8677000 0.73823 0.00271
0.8681000 0.73498 0.00267
0.8685000 0.72590 0.00259
0.8689000 0.73754 0.00222
0.8693000 0.73892 0.00275
0.8698000 0.72778 0.00232
0.8702000 0.71722 0.00252
0.8706000 0.73133 0.00249
0.8710000 0.74425 0.00232
0.8714000 0.73616 0.00237
0.8718000 0.73527 0.00213
0.8722000 0.71327 0.00229
0.8726000 0.73922 0.00237
0.8731000 0.72926 0.00250
0.8735000 0.72166 0.00242
0.8739000 0.72787 0.00270
0.8743000 0.71455 0.00250
0.8747000 0.73892 0.00237
0.8751000 0.72185 0.00274
0.8755000 0.71140 0.00349
0.8760000 0.72491 0.00366
0.8764000 0.74149 0.00347
0.8768000 0.70340 0.00357
0.8772000 0.72679 0.00384
0.8776000 0.71485 0.00359
0.8780000 0.71386 0.00315
0.8784000 0.72047 0.00289
0.8789000 0.71978 0.00271
0.8793000 0.71071 0.00284
0.8797000 0.70587 0.00245
0.8801000 0.73152 0.00270
0.8805000 0.71337 0.00273
0.8809000 0.67588 0.00242
0.8813000 0.70508 0.00240
0.8817000 0.72028 0.00302
0.8822000 0.71603 0.00409
0.8826000 0.70617 0.00429
0.8830000 0.72225 0.00459
0.8834000 0.68397 0.00356
0.8838000 0.70242 0.00329
0.8842000 0.69729 0.00276
0.8846000 0.70163 0.00272
0.8851000 0.69482 0.00284
0.8855000 0.71860 0.00269
0.8859000 0.69837 0.00274
0.8863000 0.69304 0.00315
0.8867000 0.69512 0.00294
0.8871000 0.71238 0.00290
0.8875000 0.70863 0.00268
0.8880000 0.70331 0.00369
0.8884000 0.69847 0.00339
0.8888000 0.70863 0.00358
0.8892000 0.69383 0.00307
0.8896000 0.68772 0.00278
0.8900000 0.67893 0.00320
0.8904000 0.70360 0.00310
0.8908000 0.71761 0.00300
0.8913000 0.69630 0.00348
0.8917000 0.69285 0.00372
0.8921000 0.69620 0.00394
0.8925000 0.69729 0.00383
0.8929000 0.68259 0.00276
0.8933000 0.68288 0.00255
0.8937000 0.69482 0.00312
0.8942000 0.67903 0.00320
0.8946000 0.66364 0.00324
0.8950000 0.67538 0.00354
0.8954000 0.65831 0.00436
0.8958000 0.70074 0.00423
0.8962000 0.70242 0.00438
0.8966000 0.67676 0.00333
0.8971000 0.67351 0.00323
0.8975000 0.66739 0.00315
0.8979000 0.66818 0.00297
0.8983000 0.69087 0.00382
0.8987000 0.69423 0.00437
0.8991000 0.64233 0.00432
0.8995000 0.66186 0.00409
0.9000000 0.67785 0.00426
0.9004000 0.68229 0.00418
0.9008000 0.70370 0.00391
0.9012000 0.68347 0.00332
0.9016000 0.69571 0.00352
0.9020000 0.68781 0.00326
0.9024000 0.68387 0.00310
0.9028000 0.66818 0.00309
0.9033000 0.68693 0.00308
0.9037000 0.68525 0.00294
0.9041000 0.68041 0.00319
0.9045000 0.66009 0.00339
0.9049000 0.70834 0.00344
0.9053000 0.68298 0.00364
0.9057000 0.67568 0.00318
0.9062000 0.66117 0.00315
0.9066000 0.66482 0.00311
0.9070000 0.65594 0.00320
0.9074000 0.67627 0.00350
0.9078000 0.69275 0.00354
0.9082000 0.68328 0.00387
0.9086000 0.67025 0.00353
0.9091000 0.66058 0.00369
0.9095000 0.66147 0.00356
0.9099000 0.67380 0.00379
0.9103000 0.67420 0.00372
0.9107000 0.66374 0.00372
0.9111000 0.67834 0.00340
0.9115000 0.68041 0.00325
0.9120000 0.65851 0.00326
0.9124000 0.65831 0.00321
0.9128000 0.67568 0.00367
0.9132000 0.65654 0.00413
0.9136000 0.66078 0.00364
0.9140000 0.65772 0.00326
0.9144000 0.64943 0.00349
0.9149000 0.67440 0.00376
0.9153000 0.69660 0.00450
0.9157000 0.66088 0.00437
0.9161000 0.64568 0.00364
0.9165000 0.65723 0.00351
0.9169000 0.68150 0.00388
0.9173000 0.67252 0.00415
0.9178000 0.64894 0.00366
0.9182000 0.63848 0.00349
0.9186000 0.65812 0.00316
0.9190000 0.64509 0.00334
0.9194000 0.66019 0.00378
0.9198000 0.63187 0.00321
0.9202000 0.67430 0.00340
0.9207000 0.68377 0.00342
0.9211000 0.66295 0.00333
0.9215000 0.64578 0.00353
0.9219000 0.65180 0.00360
0.9223000 0.66996 0.00336
0.9227000 0.67104 0.00354
0.9231000 0.67775 0.00372
0.9236000 0.63976 0.00335
0.9240000 0.66936 0.00352
0.9244000 0.66117 0.00376
0.9248000 0.63947 0.00366
0.9252000 0.66216 0.00375
0.9256000 0.67035 0.00402
0.9260000 0.64558 0.00369
0.9265000 0.64539 0.00402
0.9269000 0.66482 0.00351
0.9273000 0.68643 0.00406
0.9277000 0.65713 0.00418
0.9281000 0.67045 0.00487
0.9285000 0.65851 0.00440
0.9289000 0.66177 0.00479
0.9294000 0.65042 0.00511
0.9298000 0.67815 0.00606
0.9302000 0.63878 0.00671
0.9306000 0.67104 0.00815
0.9310000 0.65802 0.00864
0.9314000 0.63355 0.00912
0.9318000 0.64687 0.00961
0.9323000 0.65200 0.01009
0.9327000 0.67104 0.01057
0.9331000 0.66808 0.01065
0.9335000 0.68683 0.01023
0.9339000 0.60217 0.00981
0.9343000 0.62625 0.00939
0.9347000 0.65664 0.00897
0.9352000 0.63226 0.00830
0.9356000 0.68624 0.01021
0.9360000 0.61756 0.00902
0.9364000 0.64174 0.00832
0.9368000 0.66275 0.00848
0.9372000 0.64726 0.00863
0.9376000 0.64489 0.00878
0.9381000 0.62773 0.00893
0.9385000 0.67222 0.00909
0.9389000 0.64341 0.00633
0.9393000 0.62960 0.00531
0.9397000 0.69245 0.00675
0.9401000 0.66108 0.00729
0.9405000 0.66137 0.00798
0.9410000 0.65664 0.00844
0.9414000 0.64618 0.00873
0.9418000 0.63552 0.00781
0.9422000 0.62842 0.00849
0.9426000 0.66019 0.01082
0.9430000 0.65910 0.00874
0.9434000 0.62289 0.00924
0.9439000 0.69403 0.00921
0.9443000 0.61786 0.00917
0.9447000 0.59280 0.00914
0.9451000 0.66522 0.00822
0.9455000 0.67124 0.00934
0.9459000 0.66621 0.01174
0.9464000 0.60799 0.00994
0.9468000 0.66729 0.00851
0.9472000 0.63444 0.00943
0.9476000 0.64381 0.01020
0.9480000 0.66877 0.01052
0.9484000 0.65220 0.00910
0.9488000 0.63128 0.00677
0.9493000 0.68091 0.00863
0.9497000 0.71386 0.01013
0.9501000 0.66098 0.01180
0.9505000 0.62427 0.00865
0.9509000 0.66029 0.00682
0.9513000 0.69235 0.00787
0.9517000 0.69462 0.00893
0.9522000 0.64184 0.01071
0.9526000 0.63167 0.00980
0.9530000 0.64312 0.00829
0.9534000 0.63483 0.00812
0.9538000 0.71238 0.00801
0.9542000 0.69334 0.00836
0.9546000 0.66502 0.00817
0.9551000 0.64884 0.00919
0.9555000 0.67045 0.00976
0.9559000 0.61598 0.00995
0.9563000 0.61046 0.00944
0.9567000 0.67430 0.01083
0.9571000 0.67104 0.00924
0.9575000 0.66423 0.00743
0.9580000 0.66700 0.00773
0.9584000 0.66986 0.00804
0.9588000 0.68555 0.00862
0.9592000 0.67400 0.00965
0.9596000 0.65417 0.00927
0.9600000 0.67647 0.00758
0.9605000 0.63286 0.00779
0.9609000 0.68821 0.00852
0.9613000 0.67015 0.00742
0.9617000 0.66561 0.00803
0.9621000 0.67893 0.00919
0.9625000 0.69748 0.00933
0.9629000 0.63384 0.00736
0.9634000 0.63700 0.00796
0.9638000 0.68653 0.00772
0.9642000 0.67094 0.00835
0.9646000 0.65535 0.00823
0.9650000 0.63976 0.00744
0.9654000 0.66828 0.00756
0.9658000 0.64618 0.00803
0.9663000 0.65673 0.00917
0.9667000 0.65565 0.00910
0.9671000 0.67667 0.00819
0.9675000 0.66986 0.00743
0.9679000 0.68199 0.00788
0.9683000 0.69324 0.00810
0.9688000 0.64973 0.00729
0.9692000 0.70222 0.00731
0.9696000 0.70173 0.00832
0.9700000 0.69867 0.00838
0.9704000 0.70242 0.00829
0.9708000 0.69581 0.00720
0.9712000 0.69018 0.00756
0.9717000 0.70469 0.00908
0.9721000 0.68101 0.00846
0.9725000 0.69551 0.00821
0.9729000 0.69383 0.00791
0.9733000 0.69295 0.00855
0.9737000 0.69719 0.00908
0.9741000 0.68170 0.00915
0.9746000 0.71909 0.00822
0.9750000 0.74188 0.00793
0.9754000 0.71554 0.00827
0.9758000 0.69817 0.01077
0.9762000 0.66611 0.00960
0.9766000 0.69038 0.00842
0.9771000 0.68742 0.00854
0.9775000 0.72610 0.00865
0.9779000 0.66512 0.00877
0.9783000 0.66857 0.00889
0.9787000 0.67538 0.00900
0.9791000 0.66719 0.00969
0.9795000 0.70942 0.01034
0.9800000 0.67765 0.00957
0.9804000 0.73083 0.00989
0.9808000 0.69413 0.00877
0.9812000 0.71672 0.00894
0.9816000 0.69206 0.00949
0.9820000 0.70301 0.00946
0.9824000 0.71515 0.00943
0.9829000 0.69156 0.00940
0.9833000 0.71761 0.00954
0.9837000 0.67864 0.00967
0.9841000 0.72215 0.00981
0.9845000 0.73182 0.00995
0.9849000 0.72264 0.01016
0.9854000 0.71988 0.01049
0.9858000 0.70646 0.01082
0.9862000 0.70291 0.01115
0.9866000 0.72136 0.01148
0.9870000 0.73508 0.01181
0.9874000 0.71702 0.01175
0.9878000 0.71130 0.01101
0.9883000 0.68476 0.01035
0.9887000 0.76399 0.01052
0.9891000 0.71041 0.01069
0.9895000 0.70281 0.01086
0.9899000 0.70597 0.01091
0.9903000 0.73666 0.01083
0.9908000 0.70735 0.01152
0.9912000 0.74978 0.01221
0.9916000 0.73202 0.01253
0.9920000 0.72886 0.01144
0.9924000 0.71485 0.01138
0.9928000 0.74100 0.01133
0.9932000 0.70676 0.01127
0.9937000 0.71278 0.01234
0.9941000 0.74238 0.01341
0.9945000 0.74070 0.01507
0.9949000 0.78342 0.01434
0.9953000 0.73962 0.01584
0.9957000 0.71120 0.01369
0.9962000 0.74011 0.01504
0.9966000 0.72264 0.01464
0.9970000 0.75757 0.01311
0.9974000 0.73409 0.01271
0.9978000 0.72462 0.01242
0.9982000 0.73350 0.01255
0.9986000 0.73695 0.01252
0.9991000 0.73251 0.01248
0.9995000 0.74366 0.01257
0.9999000 0.73419 0.01255
1.0003000 0.70982 0.01344
1.0007000 0.79872 0.01409
1.0011000 0.74603 0.01649
1.0016000 0.79122 0.01803
1.0020000 0.77780 0.01667
1.0024000 0.77277 0.01606
1.0028000 0.77425 0.01501
1.0032000 0.79309 0.01505
1.0036000 0.71248 0.01499
1.0041000 0.76142 0.01493
1.0045000 0.80592 0.01421
1.0049000 0.72245 0.01716
1.0053000 0.77237 0.01634
1.0057000 0.72620 0.01425
1.0061000 0.77208 0.01554
1.0065000 0.75372 0.01858
1.0070000 0.76339 0.01639
1.0074000 0.79517 0.01689
1.0078000 0.79526 0.01680
1.0082000 0.75668 0.02006
1.0086000 0.78490 0.01780
1.0090000 0.72067 0.01844
1.0095000 0.77099 0.01685
1.0099000 0.81963 0.01767
1.0103000 0.79941 0.01726
1.0107000 0.76182 0.01934
1.0111000 0.72422 0.01792
1.0115000 0.77800 0.01781
1.0119000 0.74889 0.01851
1.0124000 0.74465 0.02225
1.0128000 0.74050 0.02130
1.0132000 0.76527 0.02099
1.0136000 0.76616 0.01926
1.0140000 0.79487 0.01999
1.0144000 0.79862 0.01961
1.0149000 0.76813 0.02149
1.0153000 0.81885 0.02259
1.0157000 0.75994 0.02181
1.0161000 0.74899 0.02199
1.0165000 0.77632 0.02063
1.0169000 0.80760 0.02332
1.0174000 0.75254 0.02374
1.0178000 0.73774 0.02416
1.0182000 0.71436 0.02458
1.0186000 0.76290 0.02475
1.0190000 0.81145 0.02501
1.0194000 0.77681 0.02528
1.0198000 0.72620 0.02440
