Asteroid designations ( Number, Name, Temporary designation): 143651, -, 2003_QO104
Observation was done on (UT) (format YYYY-MM-DD-hh): 2000 - 01 - 01 - 00:00
Observation was made by : Davide Perna E-mail; davide.perna@obspm.fr
At observatory with UAI code: 950
Obsv. comments: Ambigous date
The spectrum was published in the article: http://www.oa-roma.inaf.it/planet/NEOSURFACE.html
The normalization of this spectrum was made for the wavelength: 0.550 microns.
Original name of the file was: QO104.txt
Wavelength[um]	Reflectance	sigma(optional)
0.4055 0.70149
0.4062 0.67273
0.4069 0.67977
0.4077 0.70149
0.4084 0.70149
0.4091 0.67977
0.4099 0.67273
0.4106 0.67977
0.4114 0.67977
0.4121 0.72385
0.4128 0.67977
0.4136 0.61803
0.4143 0.67977
0.4150 0.66421
0.4158 0.66421
0.4165 0.66805
0.4172 0.67273
0.4180 0.70695
0.4187 0.66421
0.4194 0.66069
0.4202 0.66805
0.4209 0.64537
0.4216 0.67250
0.4224 0.67977
0.4231 0.66805
0.4238 0.66805
0.4246 0.67250
0.4253 0.67250
0.4260 0.67977
0.4268 0.70695
0.4275 0.75570
0.4282 0.69101
0.4290 0.70695
0.4297 0.75957
0.4304 0.77745
0.4312 0.77745
0.4319 0.79668
0.4327 0.83907
0.4334 0.78786
0.4341 0.84334
0.4349 0.80342
0.4356 0.75957
0.4363 0.87467
0.4371 0.83231
0.4378 0.83231
0.4385 0.80342
0.4393 0.83231
0.4400 0.84334
0.4407 0.83907
0.4415 0.84334
0.4422 0.78786
0.4429 0.88050
0.4437 0.93826
0.4444 0.88546
0.4451 0.88640
0.4459 0.88640
0.4466 0.88924
0.4473 0.88640
0.4481 0.97784
0.4488 0.93826
0.4495 0.97784
0.4503 0.99316
0.4510 0.93826
0.4517 0.88050
0.4525 0.99316
0.4532 0.93826
0.4540 0.93826
0.4547 0.89573
0.4554 0.88924
0.4562 0.88546
0.4569 1.00335
0.4576 0.95973
0.4584 0.95973
0.4591 0.92688
0.4598 1.05062
0.4606 1.01136
0.4613 0.99316
0.4620 1.00784
0.4628 0.99316
0.4635 1.05926
0.4642 0.98472
0.4650 0.99196
0.4657 0.98472
0.4664 0.91945
0.4672 0.98472
0.4679 0.95973
0.4686 1.01489
0.4694 1.02735
0.4701 0.98278
0.4708 0.99387
0.4716 0.94130
0.4723 0.98472
0.4730 0.99749
0.4738 0.94280
0.4745 0.98278
0.4753 0.99196
0.4760 0.96648
0.4767 0.94996
0.4775 0.96648
0.4782 1.00151
0.4789 0.88973
0.4797 1.03215
0.4804 0.95410
0.4811 0.90837
0.4819 0.93752
0.4826 1.01569
0.4833 0.97155
0.4841 0.95109
0.4848 0.96985
0.4855 1.02164
0.4863 0.95410
0.4870 0.91283
0.4877 0.87680
0.4885 0.92740
0.4892 0.94466
0.4899 0.94466
0.4907 0.93752
0.4914 0.93752
0.4921 1.01373
0.4929 0.93752
0.4936 0.94466
0.4943 0.94466
0.4951 0.96985
0.4958 0.93128
0.4966 0.92740
0.4973 0.93462
0.4980 0.93462
0.4988 0.93128
0.4995 0.85921
0.5002 0.87051
0.5010 0.99176
0.5017 0.89480
0.5024 0.88411
0.5032 0.92151
0.5039 0.95173
0.5046 0.84941
0.5054 0.89480
0.5061 0.89480
0.5068 0.89569
0.5076 0.84763
0.5083 0.89480
0.5090 0.94331
0.5098 0.88970
0.5105 0.83790
0.5112 0.89480
0.5120 0.97669
0.5127 0.92151
0.5134 0.88970
0.5142 0.94331
0.5149 0.95173
0.5157 0.95173
0.5164 0.97669
0.5171 0.90968
0.5179 0.97669
0.5186 0.86618
0.5193 0.95217
0.5201 0.97669
0.5208 0.98201
0.5215 0.98696
0.5223 1.03882
0.5230 0.99255
0.5237 0.98201
0.5245 0.98696
0.5252 0.99255
0.5259 0.99463
0.5267 1.06098
0.5274 1.02268
0.5281 1.05700
0.5289 1.05001
0.5296 1.05001
0.5303 0.95217
0.5311 0.98696
0.5318 0.98201
0.5325 1.02268
0.5333 0.99463
0.5340 1.00961
0.5347 0.93721
0.5355 0.96835
0.5362 1.07619
0.5370 1.07863
0.5377 1.02201
0.5384 1.02201
0.5392 1.10986
0.5399 1.10687
0.5406 1.10307
0.5414 1.00878
0.5421 1.02201
0.5428 1.02201
0.5436 0.96457
0.5443 0.98155
0.5450 1.04868
0.5458 1.04201
0.5465 1.06114
0.5472 1.09814
0.5480 1.02673
0.5487 1.02673
0.5494 1.07055
0.5502 1.00000
0.5509 1.05410
0.5516 1.06844
0.5524 1.02134
0.5531 1.03765
0.5538 1.04201
0.5546 1.04201
0.5553 1.04201
0.5560 1.08319
0.5568 1.00977
0.5575 0.95446
0.5583 1.02673
0.5590 0.98180
0.5597 1.02134
0.5605 1.03765
0.5612 1.02134
0.5619 1.02673
0.5627 1.12335
0.5634 1.02673
0.5641 1.02673
0.5649 1.03765
0.5656 1.06478
0.5663 1.08319
0.5671 1.08716
0.5678 0.99386
0.5685 1.08967
0.5693 1.10774
0.5700 1.02047
0.5707 1.12335
0.5715 1.13225
0.5722 1.16661
0.5729 1.20778
0.5737 1.08716
0.5744 1.10774
0.5751 1.18514
0.5759 1.19853
0.5766 1.10669
0.5773 1.06478
0.5781 1.01522
0.5788 1.08615
0.5796 1.08716
0.5803 1.16109
0.5810 1.08716
0.5818 1.17048
0.5825 1.10669
0.5832 1.08267
0.5840 1.10774
0.5847 1.10774
0.5854 1.08615
0.5862 1.15001
0.5869 1.14319
0.5876 1.10304
0.5884 1.14319
0.5891 1.05803
0.5898 1.15437
0.5906 1.16109
0.5913 1.13643
0.5920 1.17185
0.5928 1.07814
0.5935 1.15437
0.5942 1.08457
0.5950 1.15437
0.5957 1.15437
0.5964 1.15437
0.5972 1.16492
0.5979 1.24959
0.5986 1.15437
0.5994 1.15437
0.6001 1.15437
0.6008 1.15437
0.6016 1.21664
0.6023 1.28587
0.6031 1.17021
0.6038 1.20196
0.6045 1.17403
0.6053 1.16986
0.6060 1.24727
0.6067 1.21664
0.6075 1.21664
0.6082 1.21664
0.6089 1.20196
0.6097 1.20196
0.6104 1.18059
0.6111 1.17403
0.6119 1.08772
0.6126 1.07932
0.6133 1.09733
0.6141 1.09585
0.6148 1.17021
0.6155 1.18059
0.6163 1.09223
0.6170 1.08614
0.6177 1.08850
0.6185 1.08850
0.6192 1.09223
0.6199 1.09585
0.6207 1.11366
0.6214 1.08850
0.6221 1.05863
0.6229 1.09733
0.6236 1.09585
0.6244 1.09223
0.6251 1.22203
0.6258 1.19051
0.6266 1.13165
0.6273 1.15584
0.6280 1.22748
0.6288 1.22203
0.6295 1.24217
0.6302 1.22203
0.6310 1.30388
0.6317 1.20587
0.6324 1.15975
0.6332 1.30786
0.6339 1.20587
0.6346 1.22203
0.6354 1.33618
0.6361 1.22748
0.6368 1.23831
0.6376 1.19051
0.6383 1.35683
0.6390 1.23831
0.6398 1.22748
0.6405 1.13840
0.6412 1.30599
0.6420 1.24916
0.6427 1.24916
0.6434 1.20587
0.6442 1.35361
0.6449 1.14795
0.6457 1.14733
0.6464 1.23831
0.6471 1.19394
0.6479 1.23831
0.6486 1.30396
0.6493 1.23132
0.6501 1.30396
0.6508 1.20486
0.6515 1.31871
0.6523 1.30396
0.6530 1.29142
0.6537 1.29142
0.6545 1.23232
0.6552 1.28739
0.6559 1.26658
0.6567 1.26658
0.6574 1.28739
0.6581 1.29142
0.6589 1.28739
0.6596 1.34985
0.6603 1.35339
0.6611 1.29142
0.6618 1.31210
0.6625 1.29142
0.6633 1.35776
0.6640 1.32418
0.6647 1.34985
0.6655 1.26658
0.6662 1.21015
0.6670 1.22644
0.6677 1.21807
0.6684 1.31210
0.6692 1.37080
0.6699 1.37961
0.6706 1.24406
0.6714 1.35785
0.6721 1.28023
0.6728 1.42820
0.6736 1.37171
0.6743 1.29142
0.6750 1.32418
0.6758 1.18945
0.6765 1.30466
0.6772 1.24566
0.6780 1.26904
0.6787 1.20491
0.6794 1.34466
0.6802 1.42050
0.6809 1.25160
0.6816 1.32153
0.6824 1.32153
0.6831 1.32153
0.6838 1.32153
0.6846 1.30466
0.6853 1.22140
0.6861 1.34466
0.6868 1.36677
0.6875 1.25849
0.6883 1.36677
0.6890 1.41577
0.6897 1.41745
0.6905 1.42050
0.6912 1.42335
0.6919 1.42496
0.6927 1.43545
0.6934 1.41745
0.6941 1.42335
0.6949 1.42335
0.6956 1.43914
0.6963 1.43742
0.6971 1.42335
0.6978 1.43811
0.6985 1.50003
0.6993 1.41577
0.7000 1.42496
0.7007 1.42335
0.7015 1.41316
0.7022 1.51571
0.7029 1.41745
0.7037 1.53495
0.7044 1.38406
0.7051 1.41745
0.7059 1.41577
0.7066 1.46964
0.7074 1.50557
0.7081 1.47853
0.7088 1.30796
0.7096 1.41204
0.7103 1.40871
0.7110 1.39403
0.7118 1.49050
0.7125 1.31004
0.7132 1.38380
0.7140 1.35830
0.7147 1.40871
0.7154 1.31004
0.7162 1.39403
0.7169 1.27345
0.7176 1.27996
0.7184 1.22064
0.7191 1.31004
0.7198 1.27996
0.7206 1.27996
0.7213 1.27996
0.7220 1.38380
0.7228 1.31041
0.7235 1.35830
0.7242 1.33771
0.7250 1.38909
0.7257 1.38380
0.7264 1.38909
0.7272 1.38909
0.7279 1.38380
0.7287 1.38380
0.7294 1.26252
0.7301 1.35830
0.7309 1.37713
0.7316 1.29704
0.7323 1.44519
0.7331 1.38380
0.7338 1.38380
0.7345 1.38909
0.7353 1.38909
0.7360 1.38909
0.7367 1.44519
0.7375 1.52331
0.7382 1.47646
0.7389 1.53513
0.7397 1.45297
0.7404 1.55693
0.7411 1.45570
0.7419 1.37713
0.7426 1.52799
0.7433 1.45570
0.7441 1.48880
0.7448 1.47646
0.7455 1.45297
0.7463 1.45297
0.7470 1.31653
0.7477 1.45297
0.7485 1.43698
0.7492 1.42749
0.7500 1.43698
0.7507 1.45297
0.7514 1.32024
0.7522 1.45570
0.7529 1.43698
0.7536 1.43698
0.7544 1.43698
0.7551 1.51288
0.7558 1.42749
0.7566 1.42531
0.7573 1.42531
0.7580 1.42531
0.7588 1.32024
0.7595 1.32024
0.7602 1.41603
0.7610 1.32024
0.7617 1.28953
0.7624 1.22487
0.7632 1.22487
0.7639 1.21687
0.7646 1.21111
0.7654 1.21111
0.7661 1.22487
0.7668 1.22487
0.7676 1.22487
0.7683 1.21111
0.7690 1.22487
0.7698 1.28953
0.7705 1.28953
0.7713 1.18652
0.7720 1.19467
0.7727 1.28953
0.7735 1.19467
0.7742 1.11055
0.7749 1.07264
0.7757 1.11055
0.7764 1.19467
0.7771 1.07313
0.7779 1.07313
0.7786 1.10486
0.7793 1.01680
0.7801 1.12931
0.7808 1.12931
0.7815 1.13692
0.7823 1.15809
0.7830 1.19467
0.7837 1.28953
0.7845 1.28953
0.7852 1.19467
0.7859 1.45532
0.7867 1.45532
0.7874 1.47594
0.7881 1.45532
0.7889 1.53439
0.7896 1.53439
0.7903 1.53439
0.7911 1.47594
0.7918 1.52041
0.7926 1.58025
0.7933 1.47594
0.7940 1.45857
0.7948 1.45532
0.7955 1.57030
0.7962 1.47594
0.7970 1.47594
0.7977 1.47594
0.7984 1.52041
0.7992 1.47594
0.7999 1.54495
0.8006 1.56801
0.8014 1.55436
0.8020 1.41624
0.8047 1.38730
0.8076 1.38730
0.8104 1.46372
0.8133 1.45748
0.8163 1.38730
0.8192 1.41624
0.8222 1.35986
0.8252 1.35986
0.8283 1.28708
0.8314 1.28103
0.8345 1.35986
0.8376 1.24056
0.8408 1.30228
0.8441 1.24056
0.8473 1.23837
0.8506 1.18733
0.8540 1.17734
0.8573 1.22203
0.8607 1.18733
0.8642 1.18733
0.8677 1.13450
0.8712 1.17388
0.8748 1.13183
0.8784 1.12313
0.8820 1.07499
0.8857 1.11568
0.8895 1.13183
0.8932 1.23701
0.8971 1.17585
0.9009 1.12592
0.9049 1.14674
0.9088 1.12592
0.9128 1.10684
0.9169 1.18987
0.9210 1.17625
0.9252 1.10684
0.9293 1.13802
0.9336 1.07027
0.9379 1.10684
0.9423 1.07146
0.9467 1.05868
0.9511 1.09609
0.9557 1.12027
0.9603 1.16123
0.9649 1.07166
0.9696 1.08247
0.9743 1.11012
0.9791 1.09884
0.9840 1.09334
0.9889 1.09713
0.9939 1.12360
0.9989 1.15870
1.0040 1.09722
1.0092 1.12559
1.0144 1.14708
1.0197 1.15055
1.0251 1.08819
1.0305 1.12252
1.0360 1.03456
1.0416 1.09112
1.0472 1.03965
1.0529 1.10420
1.0587 1.13103
1.0645 1.15453
1.0704 1.11751
1.0764 1.12138
1.0825 1.10701
1.0886 1.11946
1.0948 1.09528
1.1011 1.15417
1.1074 1.22335
1.1138 1.21477
1.1203 1.15417
1.1269 1.16587
1.1336 1.23174
1.1403 1.18656
1.1471 1.23784
1.1540 1.19960
1.1609 1.28375
1.1680 1.20273
1.1751 1.25500
1.1823 1.29407
1.1896 1.32981
1.1969 1.27581
1.2043 1.33524
1.2119 1.30982
1.2194 1.23772
1.2271 1.31821
1.2349 1.34604
1.2427 1.29298
1.2506 1.34038
1.2585 1.38081
1.2666 1.33570
1.2747 1.41595
1.2829 1.37728
1.2912 1.42297
1.2996 1.43716
1.3080 1.45050
1.3165 1.39442
1.3251 1.33956
1.3337 1.46015
1.3424 1.43716
1.3512 1.44797
1.3601 1.46065
1.3690 1.46015
1.3780 1.46015
1.3870 1.50493
1.3962 1.42554
1.4053 1.46217
1.4146 1.44797
1.4239 1.60160
1.4332 1.48479
1.4426 1.52760
1.4521 1.59128
1.4616 1.51236
1.4712 1.61925
1.4808 1.59128
1.4905 1.61671
1.5002 1.70773
1.5099 1.71188
1.5197 1.64284
1.5296 1.64361
1.5395 1.65989
1.5494 1.59816
1.5594 1.73989
1.5693 1.71566
1.5794 1.75242
1.5894 1.64013
1.5995 1.68021
1.6097 1.58179
1.6198 1.67175
1.6299 1.65344
1.6401 1.56885
1.6503 1.61922
1.6606 1.64839
1.6708 1.60760
1.6811 1.67206
1.6913 1.61076
1.7016 1.78340
1.7119 1.63307
1.7223 1.63382
1.7325 1.61922
1.7429 1.57234
1.7532 1.67161
1.7635 1.55242
1.7738 1.71603
1.7842 1.74476
1.7945 1.61272
1.8049 1.67312
1.8152 1.71603
1.8255 1.74476
1.8358 1.71603
1.8462 1.74476
1.8565 1.82628
1.8668 1.82605
1.8771 1.74761
1.8874 1.74761
1.8977 1.70407
1.9079 1.74761
1.9182 1.82605
1.9284 1.90410
1.9386 1.82605
1.9488 1.82628
1.9590 1.84968
1.9692 1.81529
1.9794 1.81529
1.9895 1.90300
1.9996 1.74956
2.0097 1.84968
2.0198 1.83859
2.0299 1.81529
2.0399 1.74956
2.0499 1.84968
2.0599 1.83859
2.0699 1.69629
2.0799 2.00859
2.0898 1.74956
2.0997 1.91880
2.1096 1.83859
