Asteroid designations ( Number, Name, Temporary designation): , -, 2004_TP1
Observation was done on (UT) (format YYYY-MM-DD-hh): 2000 - 01 - 01 - 00:00
Observation was made by : Davide Perna E-mail; davide.perna@obspm.fr
At observatory with UAI code: 950
Obsv. comments: Ambigous date
The spectrum was published in the article: http://www.oa-roma.inaf.it/planet/NEOSURFACE.html
The normalization of this spectrum was made for the wavelength: 1.250 microns.
Original name of the file was: 2004TP1.txt
Wavelength[um]	Reflectance	sigma(optional)
0.8031 0.99667
0.8065 0.98457
0.8098 0.98448
0.8132 0.97536
0.8166 0.97574
0.8200 0.95868
0.8234 0.96285
0.8268 0.97067
0.8302 0.95650
0.8336 0.95695
0.8370 0.94871
0.8404 0.94793
0.8437 0.94714
0.8471 0.93704
0.8505 0.94852
0.8539 0.93080
0.8573 0.91863
0.8607 0.92674
0.8641 0.91860
0.8675 0.90911
0.8709 0.89903
0.8743 0.89738
0.8776 0.90041
0.8810 0.90000
0.8844 0.89067
0.8878 0.88867
0.8912 0.88907
0.8946 0.88104
0.8980 0.88723
0.9014 0.88817
0.9048 0.88423
0.9082 0.88151
0.9115 0.88134
0.9149 0.87823
0.9183 0.88030
0.9217 0.88200
0.9251 0.87327
0.9285 0.86759
0.9319 0.86531
0.9353 0.85689
0.9387 0.85353
0.9421 0.84995
0.9454 0.84844
0.9488 0.85075
0.9522 0.85863
0.9556 0.85921
0.9590 0.86204
0.9624 0.85588
0.9658 0.85833
0.9692 0.86979
0.9726 0.87080
0.9759 0.86798
0.9793 0.86727
0.9827 0.85694
0.9861 0.85322
0.9895 0.84634
0.9929 0.86496
0.9963 0.86855
0.9997 0.86115
1.0031 0.85812
1.0065 0.86362
1.0098 0.86728
1.0132 0.86057
1.0166 0.86618
1.0200 0.86200
1.0234 0.86135
1.0268 0.86537
1.0302 0.87477
1.0336 0.87746
1.0370 0.86714
1.0404 0.86981
1.0437 0.86757
1.0471 0.86959
1.0505 0.87623
1.0539 0.87632
1.0573 0.87255
1.0607 0.87863
1.0641 0.88022
1.0675 0.87470
1.0709 0.87828
1.0742 0.88457
1.0776 0.88911
1.0810 0.89126
1.0844 0.89067
1.0878 0.89697
1.0912 0.89821
1.0946 0.89668
1.0980 0.89602
1.1014 0.89895
1.1048 0.90618
1.1081 0.91816
1.1115 0.92502
1.1149 0.92393
1.1183 0.91782
1.1217 0.92040
1.1251 0.91499
1.1285 0.92011
1.1319 0.92135
1.1353 0.91704
1.1387 0.92605
1.1421 0.92282
1.1454 0.93155
1.1488 0.93955
1.1522 0.94213
1.1556 0.94183
1.1590 0.94759
1.1624 0.94790
1.1658 0.94972
1.1692 0.95613
1.1726 0.96737
1.1760 0.96540
1.1793 0.97007
1.1827 0.97344
1.1861 0.97414
1.1895 0.97645
1.1929 0.97183
1.1963 0.97911
1.1997 0.98560
1.2031 0.98519
1.2065 0.98010
1.2098 0.98461
1.2132 0.98191
1.2166 0.98269
1.2200 0.99030
1.2234 0.98254
1.2268 0.98768
1.2302 0.99302
1.2336 0.99510
1.2370 0.99389
1.2404 1.00585
1.2437 1.00557
1.2471 1.00200
1.2505 1.00000
1.2539 1.00342
1.2573 1.00920
1.2607 1.00262
1.2641 0.99771
1.2675 1.00047
1.2709 1.00284
1.2743 1.00028
1.2776 1.00475
1.2810 1.01052
1.2844 1.01131
1.2878 1.01402
1.2912 1.01443
1.2946 1.01543
1.2980 1.01925
1.3014 1.02847
1.3048 1.02440
1.3081 1.02563
1.3115 1.02755
1.3149 1.02833
1.3183 1.03261
1.3217 1.02688
1.3251 1.03549
1.3285 1.04485
1.3319 1.03843
1.3353 1.04202
1.3386 1.04109
1.3420 1.04782
1.3454 1.05875
1.3488 1.05501
1.4505 1.09343
1.4539 1.10237
1.4573 1.11730
1.4607 1.13205
1.4641 1.13394
1.4675 1.11857
1.4709 1.12914
1.4743 1.13593
1.4776 1.13178
1.4810 1.12776
1.4844 1.13743
1.4878 1.13256
1.4912 1.14225
1.4946 1.15842
1.4980 1.16193
1.5014 1.15945
1.5048 1.15738
1.5081 1.15253
1.5115 1.15207
1.5149 1.15504
1.5183 1.14017
1.5217 1.15177
1.5251 1.15543
1.5285 1.15923
1.5319 1.16712
1.5353 1.17560
1.5387 1.16059
1.5420 1.16480
1.5454 1.16377
1.5488 1.16328
1.5522 1.16737
1.5556 1.16886
1.5590 1.17572
1.5624 1.18112
1.5658 1.18281
1.5692 1.18739
1.5725 1.19907
1.5759 1.20925
1.5793 1.17703
1.5827 1.18612
1.5861 1.19139
1.5895 1.18862
1.5929 1.18588
1.5963 1.18352
1.5997 1.17832
1.6031 1.18975
1.6064 1.19267
1.6098 1.18077
1.6132 1.16250
1.6166 1.15783
1.6200 1.19249
1.6234 1.16946
1.6268 1.17168
1.6302 1.17951
1.6336 1.18095
1.6369 1.17951
1.6403 1.18689
1.6437 1.18172
1.6471 1.17648
1.6505 1.17825
1.6539 1.16531
1.6573 1.16547
1.6607 1.18764
1.6641 1.17342
1.6675 1.17732
1.6708 1.16960
1.6742 1.17352
1.6776 1.17895
1.6810 1.17366
1.6844 1.16507
1.6878 1.16620
1.6912 1.15378
1.6946 1.17491
1.6980 1.17424
1.7014 1.16644
1.7047 1.15419
1.7081 1.16520
1.7115 1.17980
1.7149 1.16130
1.7183 1.16777
1.7217 1.16186
1.7251 1.16070
1.7285 1.17107
1.7319 1.16300
1.7353 1.15036
1.7386 1.14103
1.7420 1.13836
1.7454 1.14392
1.7488 1.14128
1.7522 1.14903
1.7556 1.14508
1.7590 1.13001
1.7624 1.12563
1.7658 1.13623
1.7692 1.14279
1.7725 1.13609
1.7759 1.12782
1.7793 1.12926
1.7827 1.13195
1.7861 1.13816
1.7895 1.15744
1.7929 1.12651
1.7963 1.15068
1.7997 1.14126
1.8030 1.13512
2.0030 1.16116
2.0064 1.09918
2.0098 1.06627
2.0132 1.12939
2.0166 1.11080
2.0200 1.07347
2.0234 1.09311
2.0268 1.10583
2.0302 1.12024
2.0336 1.12985
2.0370 1.12097
2.0403 1.10435
2.0437 1.10806
2.0471 1.13295
2.0505 1.13737
2.0539 1.11403
2.0573 1.11475
2.0607 1.13703
2.0641 1.15063
2.0675 1.12478
2.0708 1.11023
2.0742 1.14470
2.0776 1.14925
2.0810 1.13971
2.0844 1.12425
2.0878 1.13683
2.0912 1.13587
2.0946 1.11383
2.0980 1.13217
2.1014 1.15463
2.1047 1.13610
2.1081 1.09218
2.1115 1.12698
2.1149 1.17743
2.1183 1.16543
2.1217 1.13585
2.1251 1.13687
2.1285 1.13629
2.1319 1.14550
2.1353 1.14898
2.1386 1.13585
2.1420 1.14718
2.1454 1.13673
2.1488 1.14041
2.1522 1.15775
2.1556 1.14393
2.1590 1.12523
2.1624 1.13875
2.1658 1.11826
2.1692 1.12744
2.1725 1.14925
2.1759 1.13404
2.1793 1.13440
2.1827 1.15935
2.1861 1.15223
2.1895 1.13124
2.1929 1.13606
2.1963 1.13951
2.1997 1.17822
2.2031 1.18694
2.2064 1.17663
2.2098 1.17132
2.2132 1.12862
2.2166 1.13612
2.2200 1.16362
2.2234 1.16191
2.2268 1.16153
2.2302 1.18156
2.2336 1.16498
2.2369 1.12706
2.2403 1.16073
2.2437 1.12666
2.2471 1.14784
2.2505 1.14379
2.2539 1.18309
2.2573 1.17903
2.2607 1.16266
2.2641 1.18323
2.2675 1.14570
2.2708 1.16811
2.2742 1.19019
2.2776 1.20165
2.2810 1.19614
2.2844 1.16528
2.2878 1.17379
2.2912 1.18178
2.2946 1.14120
2.2980 1.19046
2.3013 1.15804
2.3047 1.11862
2.3081 1.15890
2.3115 1.18617
2.3149 1.14995
2.3183 1.16913
2.3217 1.17091
2.3251 1.17572
2.3285 1.17672
2.3319 1.18657
2.3352 1.18824
2.3386 1.14191
2.3420 1.18354
2.3454 1.17084
2.3488 1.16127
2.3522 1.21564
2.3556 1.17985
2.3590 1.14710
2.3624 1.14008
2.3657 1.16232
2.3691 1.15547
2.3725 1.17210
2.3759 1.15623
2.3793 1.17371
2.3827 1.20669
2.3861 1.17686
2.3895 1.22162
2.3929 1.13809
2.3963 1.14727
2.3996 1.13622
2.4030 1.17726
