Asteroid designations ( Number, Name, Temporary designation): 3174, Alcock,  1984 UV, J84U00V, 1962 YD, J62Y00D, 1969 BB, J69B00B, 1973 YO1, J73Y01O, 1975 EO3, J75E03O, 1978 RB1, J78R01B, 1978 TJ3, J78T03J, 1979 YR8, J79Y08R, 1980 AH, J80A00H, 1981 GF, J81G00F
Observation was done on (UT) (format YYYY-MM-DD-hh): 2012 - 12 - 18 - 23:58
Observation was made by : Fornasier Sonia E-mail; sonia.fornasier@obspm.fr
At observatory with UAI code: 950
Obsv. comments: uploaded by Simon Anghel
The spectrum was published in the article: http://adsabs.harvard.edu/abs/2016Icar..269....1F
The normalization of this spectrum was made for the wavelength: 0.550 microns.
Original name of the file was: 3174_Alcock.csv
Wavelength[um]	Reflectance	sigma(optional)
0.4150000 0.90748
0.4200000 0.92323
0.4250000 0.92323
0.4300000 0.92520
0.4350000 0.94488
0.4400000 0.95571
0.4450000 0.97244
0.4500000 0.97638
0.4550000 0.98130
0.4600000 0.98228
0.4650000 0.98031
0.4700000 0.97736
0.4750000 0.98327
0.4800000 0.98425
0.4850000 0.99508
0.4900000 0.98622
0.4950000 0.99114
0.5000000 0.99311
0.5050000 0.99508
0.5100000 0.98917
0.5150000 0.97736
0.5200000 0.98819
0.5250000 0.99606
0.5300000 1.00394
0.5350000 0.99213
0.5400000 0.99409
0.5450000 0.99705
0.5500000 1.00000
0.5550000 1.00000
0.5600000 1.00000
0.5650000 0.99705
0.5700000 0.99606
0.5750000 0.99311
0.5800000 0.99508
0.5850000 0.99902
0.5900000 0.98622
0.5950000 0.98524
0.6000000 0.98524
0.6050000 0.98917
0.6100000 0.98327
0.6150000 0.97736
0.6200000 0.98031
0.6250000 0.97343
0.6300000 0.97343
0.6350000 0.97343
0.6400000 0.96949
0.6450000 0.97047
0.6500000 0.97146
0.6550000 0.96555
0.6600000 0.96358
0.6650000 0.96358
0.6700000 0.95669
0.6750000 0.96555
0.6800000 0.95472
0.6850000 0.96358
0.6900000 0.94980
0.6950000 0.95669
0.7000000 0.95669
0.7050000 0.94980
0.7100000 0.95177
0.7150000 0.95374
0.7200000 0.94291
0.7250000 0.95472
0.7300000 0.94980
0.7350000 0.94783
0.7400000 0.94685
0.7450000 0.94685
0.7500000 0.94193
0.7550000 0.94094
0.7600000 0.93898
0.7650000 0.92815
0.7700000 0.93996
0.7750000 0.93406
0.7800000 0.93996
0.7850000 0.93898
0.7900000 0.92520
0.7950000 0.93996
0.8000000 0.92520
0.8050000 0.93110
0.8100000 0.91929
0.8150000 0.92717
0.8200000 0.92913
0.8250000 0.91732
0.8300000 0.92913
0.8350000 0.93406
0.8400000 0.92618
0.8450000 0.91831
0.8500000 0.91339
0.8550000 0.90945
0.8600000 0.90453
0.8650000 0.90945
0.8700000 0.89764
0.8750000 0.91142
0.8800000 0.91732
0.8850000 0.90256
0.8900000 0.91437
0.8950000 0.88681
0.9000000 0.90748
0.9050000 0.90453
0.9100000 0.87992
0.9150000 0.88484
0.9200000 0.90059
0.9250000 0.87894
0.9300000 0.88583
0.9350000 0.89567
0.9400000 0.90846
0.9450000 0.87500
0.9500000 0.89862
0.9550000 0.92717
0.9600000 0.90846
0.9650000 0.89272
0.9700000 0.90354
0.9750000 0.91437
0.9800000 0.92224
0.9850000 0.91142
0.9900000 0.90059
0.9950000 0.89961
1.0000000 0.88780
1.0050000 0.88681
1.0100000 0.90551
1.0150000 0.91142
1.0200000 0.91043
1.0250000 0.92126
1.0300000 0.90846
1.0350000 0.92421
1.0400000 0.92618
1.0450000 0.91142
1.0500000 0.90748
1.0550000 0.91634
1.0600000 0.92028
1.0650000 0.92815
1.0700000 0.93602
1.0750000 0.91732
1.0800000 0.93110
1.0850000 0.92717
1.0900000 0.92618
1.0950000 0.92618
1.1000000 0.91043
1.1050000 0.89075
1.1100000 0.91535
1.1150000 0.93110
1.1200000 0.92717
1.1250000 0.92126
1.1300000 0.91339
1.1350000 0.91929
1.1400000 0.92913
1.1450000 0.94685
1.1500000 0.92421
1.1550000 0.91535
1.1600000 0.92126
1.1650000 0.91240
1.1700000 0.92717
1.1750000 0.94193
1.1800000 0.93307
1.1850000 0.92913
1.1900000 0.92520
1.1950000 0.92028
1.2000000 0.93504
1.2050000 0.93898
1.2100000 0.92224
1.2150000 0.91240
1.2200000 0.91339
1.2250000 0.91831
1.2300000 0.92717
1.2350000 0.93602
1.2400000 0.93996
1.2450000 0.94193
1.2500000 0.94094
1.2550000 0.93898
1.2600000 0.93602
1.2650000 0.93307
1.2700000 0.93209
1.2750000 0.93307
1.2800000 0.93602
1.2850000 0.93996
1.2900000 0.93996
1.2950000 0.93504
1.3000000 0.93110
1.3050000 0.93209
1.3100000 0.93701
1.3150000 0.94783
1.3200000 0.95374
1.3250000 0.95571
1.3300000 0.95571
1.3350000 0.95374
1.3400000 0.95276
1.3450000 0.95276
1.3500000 0.95276
1.3550000 0.95374
1.3600000 0.95374
1.4950000 0.96260
1.5000000 0.95866
1.5050000 0.96063
1.5100000 0.96752
1.5150000 0.97736
1.5200000 0.98524
1.5250000 0.98622
1.5300000 0.98622
1.5350000 0.98622
1.5400000 0.98622
1.5450000 0.98622
1.5500000 0.98720
1.5550000 0.98622
1.5600000 0.98622
1.5650000 0.99705
1.5700000 1.00689
1.5750000 1.01476
1.5800000 1.01083
1.5850000 1.00591
1.5900000 1.00098
1.5950000 1.00000
1.6000000 0.99902
1.6050000 0.99508
1.6100000 0.99311
1.6150000 1.00492
1.6200000 1.01280
1.6250000 0.99705
1.6300000 0.98622
1.6350000 0.99213
1.6400000 0.99311
1.6450000 0.98622
1.6500000 0.98425
1.6550000 0.99409
1.6600000 1.00492
1.6650000 1.00984
1.6700000 1.00689
1.6750000 1.00098
1.6800000 1.00000
1.6850000 1.00394
1.6900000 1.00689
1.6950000 1.00394
1.7000000 0.99803
1.7050000 1.01378
1.7100000 1.03543
1.7150000 1.04232
1.7200000 1.03150
1.7250000 1.02657
1.7300000 1.03248
1.7350000 1.03248
1.7400000 1.03248
1.7450000 1.02756
1.7500000 1.01772
1.7550000 1.01181
1.7600000 1.00984
1.7650000 1.01181
1.7700000 1.01476
1.7750000 1.01772
1.7800000 1.01969
2.0200000 1.05217
2.0250000 1.05118
2.0300000 1.04724
2.0350000 1.04232
2.0400000 1.03740
2.0450000 1.03445
2.0500000 1.03051
2.0550000 1.02461
2.0600000 1.01772
2.0650000 1.01280
2.0700000 1.01378
2.0750000 1.02264
2.0800000 1.03051
2.0850000 1.01378
2.0900000 0.99803
2.0950000 1.00689
2.1000000 1.01476
2.1050000 1.01280
2.1100000 1.00984
2.1150000 1.00492
2.1200000 1.00000
2.1250000 1.00000
2.1300000 1.00000
2.1350000 1.00000
2.1400000 0.99803
2.1450000 0.98819
2.1500000 0.98720
2.1550000 0.99409
2.1600000 1.00295
2.1650000 1.00689
2.1700000 1.00098
2.1750000 0.96949
