Asteroid designations ( Number, Name, Temporary designation): 1778, Alfven,  4506 P-L, PLS4506, 1936 HK, J36H00K, 1952 DD1, J52D01D, 1958 FB, J58F00B, 1959 NN, J59N00N
Observation was done on (UT) (format YYYY-MM-DD-hh): 2012 - 12 - 17 - 06:16
Observation was made by : Fornasier Sonia E-mail; sonia.fornasier@obspm.fr
At observatory with UAI code: 950
Obsv. comments: uploaded by Simon Anghel
The spectrum was published in the article: http://adsabs.harvard.edu/abs/2016Icar..269....1F
The normalization of this spectrum was made for the wavelength: 1.250 microns.
Original name of the file was: 1778_Alfven.csv
Wavelength[um]	Reflectance	sigma(optional)
0.8100000 0.99603
0.8150000 1.02085
0.8200000 1.02284
0.8250000 1.01490
0.8300000 1.00993
0.8350000 0.99404
0.8400000 0.99404
0.8450000 0.99503
0.8500000 1.00099
0.8550000 1.02681
0.8600000 1.00794
0.8650000 1.00794
0.8700000 1.00199
0.8750000 1.00397
0.8800000 0.99305
0.8850000 1.01490
0.8900000 1.01390
0.8950000 1.00993
0.9000000 0.99503
0.9050000 1.01787
0.9100000 1.00596
0.9150000 1.02383
0.9200000 1.03277
0.9250000 1.00199
0.9300000 0.99106
0.9350000 0.99106
0.9400000 0.99206
0.9450000 1.00000
0.9500000 1.00000
0.9550000 1.00000
0.9600000 1.00298
0.9650000 0.99603
0.9700000 0.99305
0.9750000 0.98411
0.9800000 0.98908
0.9850000 1.00000
0.9900000 1.01589
0.9950000 1.00298
1.0000000 0.98610
1.0050000 0.98610
1.0100000 0.99106
1.0150000 0.99901
1.0200000 1.01092
1.0250000 1.01390
1.0300000 1.00298
1.0350000 0.99206
1.0400000 1.00000
1.0450000 0.99603
1.0500000 0.98510
1.0550000 0.99007
1.0600000 0.99007
1.0650000 0.97418
1.0700000 0.98709
1.0750000 0.99801
1.0800000 0.98908
1.0850000 0.98113
1.0900000 0.97418
1.0950000 1.00099
1.1000000 1.00000
1.1050000 0.99404
1.1100000 1.00497
1.1150000 1.00596
1.1200000 0.98510
1.1250000 0.98610
1.1300000 0.99503
1.1350000 0.99404
1.1400000 0.99305
1.1450000 1.00199
1.1500000 1.02185
1.1550000 1.00199
1.1600000 1.00596
1.1650000 0.99901
1.1700000 0.97319
1.1750000 0.99206
1.1800000 1.00695
1.1850000 1.00993
1.1900000 1.00794
1.1950000 1.00894
1.2000000 1.01490
1.2050000 1.00199
1.2100000 1.00199
1.2150000 1.01490
1.2200000 1.01490
1.2250000 1.01192
1.2300000 1.00099
1.2350000 0.99106
1.2400000 0.99305
1.2450000 1.00000
1.2500000 1.00000
1.2550000 1.00000
1.2600000 1.00099
1.2650000 1.00000
1.2700000 1.00596
1.2750000 1.02483
1.2800000 1.01986
1.2850000 1.00000
1.2900000 0.99404
1.2950000 0.99801
1.3000000 1.00199
1.3050000 0.99901
1.3100000 0.98510
1.3150000 0.99702
1.3200000 1.00794
1.3250000 1.00695
1.3300000 1.00695
1.3350000 1.00695
1.3400000 1.00695
1.3450000 1.00695
1.3500000 1.00695
1.3550000 1.00596
1.3600000 1.00099
1.3650000 1.00099
1.3700000 1.00596
1.3750000 1.00695
1.3800000 1.00993
1.3850000 1.01688
1.3900000 1.02185
1.3950000 1.02681
1.4000000 1.02880
1.4050000 1.02185
1.4100000 1.02085
1.4150000 1.02085
1.4200000 1.01589
1.4250000 1.00596
1.4300000 1.01490
1.4350000 1.02880
1.4400000 1.02880
1.4450000 1.02681
1.4500000 1.02383
1.4550000 1.01986
1.4600000 1.01787
1.4650000 1.01787
1.4700000 1.02085
1.4750000 1.02681
1.4800000 1.03873
1.4850000 1.04369
1.4900000 1.03178
1.4950000 1.02781
1.5000000 1.02880
1.5050000 1.03078
1.5100000 1.03178
1.5150000 1.02483
1.5200000 1.01390
1.5250000 1.01490
1.5300000 1.01887
1.5350000 1.03078
1.5400000 1.04270
1.5450000 1.03178
1.5500000 1.00596
1.5550000 1.00497
1.5600000 1.01688
1.5650000 1.02880
1.5700000 1.03774
1.5750000 1.02781
1.5800000 1.02185
1.5850000 1.01887
1.5900000 1.01589
1.5950000 1.01490
1.6000000 1.01490
1.6050000 1.01390
1.6100000 1.01192
1.6150000 1.01092
1.6200000 1.01192
1.6250000 1.01688
1.6300000 1.02284
1.6350000 1.01589
1.6400000 1.00397
1.6450000 1.00000
1.6500000 1.00695
1.6550000 1.00695
1.6600000 1.00695
1.6650000 1.00695
1.6700000 1.00695
1.6750000 1.00695
1.6800000 1.00695
1.6850000 1.00695
1.6900000 1.00695
1.6950000 1.00794
1.7000000 1.01490
1.7050000 1.01589
1.7100000 0.99702
1.7150000 0.99206
1.7200000 1.01291
1.7250000 1.02880
1.7300000 1.01589
1.7350000 1.00695
1.7400000 1.00695
1.7450000 1.00695
1.7500000 1.01688
1.7550000 1.02185
1.7600000 1.01787
1.7650000 1.00695
1.7700000 1.00695
1.7750000 1.00695
1.7800000 1.00993
1.7850000 1.01787
1.7900000 1.02185
