Asteroid designations ( Number, Name, Temporary designation): 99942, Apophis, 2004_MN4
Observation was done on (UT) (format YYYY-MM-DD-hh): 2000 - 01 - 01 - 00:04
Observation was made by : Davide Perna E-mail; davide.perna@obspm.fr
At observatory with UAI code: 950
Obsv. comments: Ambigous date
The spectrum was published in the article: http://www.oa-roma.inaf.it/planet/NEOSURFACE.html
The normalization of this spectrum was made for the wavelength: 1.250 microns.
Original name of the file was: apophis_gr4.txt
Wavelength[um]	Reflectance	sigma(optional)
0.6001 1.07397
0.6004 1.04018
0.6008 0.97515
0.6011 0.94213
0.6015 0.98424
0.6019 1.03547
0.6022 1.03333
0.6026 1.00917
0.6029 1.10550
0.6033 1.09437
0.6036 0.99032
0.6040 1.06912
0.6043 1.06159
0.6047 1.04846
0.6051 1.05356
0.6054 1.04284
0.6058 1.09278
0.6061 1.00747
0.6065 0.95891
0.6068 1.03492
0.6072 1.01745
0.6075 1.01821
0.6079 1.01248
0.6083 1.05586
0.6086 0.99625
0.6090 1.06265
0.6093 1.02448
0.6097 1.01780
0.6100 1.08279
0.6104 1.10649
0.6107 1.06150
0.6111 1.03638
0.6115 1.04309
0.6118 1.08449
0.6122 1.13166
0.6125 1.09529
0.6129 1.04132
0.6132 1.07505
0.6136 1.12818
0.6139 1.07454
0.6143 1.05078
0.6147 1.06109
0.6150 1.09685
0.6154 1.04882
0.6157 1.07866
0.6161 1.07207
0.6164 1.03363
0.6168 1.00639
0.6171 0.99342
0.6175 1.04131
0.6178 1.10592
0.6182 1.03755
0.6186 1.11000
0.6189 0.98935
0.6193 1.08583
0.6196 1.09099
0.6200 1.06818
0.6203 0.99936
0.6207 1.02762
0.6210 1.05353
0.6214 1.03292
0.6218 0.99128
0.6221 1.02558
0.6225 1.09121
0.6228 1.06673
0.6232 1.08591
0.6235 1.05823
0.6239 0.96893
0.6242 1.09814
0.6246 1.11722
0.6250 1.04160
0.6253 1.07274
0.6257 1.13421
0.6260 1.10300
0.6264 1.07998
0.6267 1.07837
0.6271 1.05607
0.6274 1.08698
0.6278 1.07499
0.6282 1.04034
0.6285 1.03995
0.6289 0.97709
0.6292 1.08567
0.6296 1.03879
0.6299 1.08006
0.6303 1.15044
0.6306 1.06941
0.6310 1.01811
0.6314 1.06533
0.6317 1.05098
0.6321 1.05558
0.6324 1.07905
0.6328 1.07043
0.6331 1.06097
0.6335 1.08983
0.6338 1.05343
0.6342 1.06761
0.6346 1.09347
0.6349 1.03550
0.6353 1.02107
0.6356 1.06799
0.6360 1.08651
0.6363 1.06355
0.6367 1.05220
0.6370 1.10389
0.6374 1.11933
0.6378 1.07916
0.6381 1.04293
0.6385 1.05837
0.6388 1.04860
0.6392 1.05805
0.6395 1.03898
0.6399 1.07199
0.6402 1.08014
0.6406 1.09483
0.6410 1.09105
0.6413 1.08405
0.6417 1.09948
0.6420 1.09870
0.6424 1.09877
0.6427 1.07262
0.6431 1.07684
0.6434 1.07434
0.6438 1.08146
0.6442 1.02659
0.6445 1.07507
0.6449 1.05510
0.6452 1.08998
0.6456 1.03415
0.6459 0.98603
0.6463 1.01342
0.6466 1.01593
0.6470 1.11200
0.6474 1.06435
0.6477 1.06220
0.6481 1.05420
0.6484 1.02586
0.6488 1.07250
0.6491 1.08342
0.6495 1.08986
0.6498 1.14206
0.6502 1.08045
0.6506 1.09334
0.6509 1.05298
0.6513 1.08500
0.6516 1.08706
0.6520 1.06284
0.6523 1.09282
0.6527 0.99137
0.6530 1.01993
0.6534 1.05244
0.6538 1.08895
0.6541 1.07192
0.6545 1.08114
0.6548 1.09171
0.6552 1.08708
0.6555 1.01941
0.6559 0.99142
0.6562 1.11479
0.6566 1.11183
0.6570 1.18338
0.6573 1.13114
0.6577 1.09829
0.6580 1.06850
0.6584 1.00190
0.6587 1.07874
0.6591 1.11915
0.6594 1.14207
0.6598 1.11007
0.6602 1.11030
0.6605 1.09824
0.6609 1.09802
0.6612 1.09681
0.6616 1.07203
0.6619 1.08340
0.6623 1.10192
0.6626 1.10779
0.6630 1.05196
0.6633 1.08323
0.6637 1.03595
0.6641 1.01264
0.6644 1.05484
0.6648 1.09365
0.6651 1.11971
0.6655 1.06533
0.6658 1.05327
0.6662 1.05622
0.6665 1.08285
0.6669 1.11596
0.6673 1.09445
0.6676 1.09910
0.6680 1.09117
0.6683 1.11604
0.6687 1.09947
0.6690 1.10003
0.6694 1.07572
0.6697 1.06393
0.6701 1.11767
0.6705 1.14216
0.6708 1.08742
0.6712 1.11722
0.6715 1.11772
0.6719 1.05376
0.6722 1.06996
0.6726 1.08231
0.6729 1.08775
0.6733 1.08204
0.6737 1.09013
0.6740 1.09734
0.6744 1.11413
0.6747 1.08093
0.6751 1.03444
0.6754 1.08558
0.6758 1.08042
0.6761 1.13581
0.6765 1.12125
0.6769 1.16573
0.6772 1.09875
0.6776 1.11391
0.6779 1.11033
0.6783 1.07292
0.6786 1.09653
0.6790 1.08319
0.6793 1.09002
0.6797 1.07637
0.6801 1.11959
0.6804 1.11279
0.6808 1.06700
0.6811 1.04668
0.6815 1.05352
0.6818 1.09732
0.6822 1.10257
0.6825 1.08487
0.6829 1.09926
0.6833 1.16205
0.6836 1.15154
0.6840 1.12400
0.6843 1.11734
0.6847 1.17197
0.6850 1.12134
0.6854 1.12305
0.6857 1.11884
0.6861 1.13429
0.6865 1.16108
0.6868 1.04902
0.6872 1.12316
0.6875 1.19938
0.6879 1.17237
0.6882 1.14731
0.6886 1.10920
0.6889 1.12227
0.6893 1.13452
0.6897 1.14478
0.6900 1.17416
0.6904 1.16677
0.6907 1.11820
0.6911 1.11781
0.6914 1.09243
0.6918 1.16813
0.6921 1.18271
0.6925 1.10802
0.6929 1.13088
0.6932 1.17017
0.6936 1.10470
0.6939 1.12787
0.6943 1.18748
0.6946 1.09982
0.6950 1.02994
0.6953 1.11113
0.6957 1.18018
0.6961 1.13365
0.6964 1.12274
0.6968 1.07784
0.6971 1.08539
0.6975 1.09335
0.6978 1.10385
0.6982 1.08657
0.6985 1.11260
0.6989 1.11423
0.6993 1.09570
0.6996 1.09816
0.7000 1.12305
0.7003 1.06927
0.7007 1.10559
0.7010 1.07697
0.7014 1.08786
0.7017 1.04289
0.7021 1.17835
0.7025 1.14625
0.7028 1.12082
0.7032 1.10369
0.7035 1.20665
0.7039 1.09537
0.7042 1.07985
0.7046 1.12294
0.7049 1.12445
0.7053 1.14872
0.7057 1.11882
0.7060 1.13847
0.7064 1.10572
0.7067 1.14288
0.7071 1.08664
0.7074 1.06911
0.7078 1.08770
0.7081 1.09363
0.7085 1.11068
0.7089 1.09940
0.7092 1.09656
0.7096 1.09481
0.7099 1.09818
0.7103 1.12819
0.7106 1.17103
0.7110 1.11166
0.7113 1.07164
0.7117 1.13407
0.7120 1.13711
0.7124 1.12475
0.7128 1.09803
0.7131 1.13295
0.7135 1.13555
0.7138 1.11556
0.7142 1.18794
0.7145 1.12334
0.7149 1.11299
0.7152 1.13705
0.7156 1.12347
0.7160 1.11242
0.7163 1.11756
0.7167 1.12747
0.7170 1.12435
0.7174 1.12070
0.7177 1.11266
0.7181 1.13945
0.7184 1.14594
0.7188 1.15308
0.7192 1.13396
0.7195 1.13214
0.7199 1.16155
0.7202 1.13440
0.7206 1.14800
0.7209 1.16647
0.7213 1.15726
0.7216 1.12845
0.7220 1.12919
0.7224 1.07704
0.7227 1.13531
0.7231 1.15304
0.7234 1.14228
0.7238 1.22303
0.7241 1.20444
0.7245 1.19510
0.7248 1.15430
0.7252 1.08760
0.7256 1.16727
0.7259 1.13688
0.7263 1.13667
0.7266 1.17105
0.7270 1.15950
0.7273 1.17481
0.7277 1.18223
0.7280 1.18188
0.7284 1.14720
0.7288 1.11813
0.7291 1.12166
0.7295 1.16177
0.7298 1.18057
0.7302 1.14702
0.7305 1.11780
0.7309 1.11771
0.7312 1.15170
0.7316 1.13731
0.7320 1.18036
0.7323 1.19795
0.7327 1.17939
0.7330 1.15290
0.7334 1.19168
0.7337 1.18059
0.7341 1.14871
0.7344 1.13584
0.7348 1.13455
0.7352 1.15113
0.7355 1.19631
0.7359 1.15915
0.7362 1.13399
0.7366 1.17480
0.7369 1.22718
0.7373 1.14295
0.7376 1.11949
0.7380 1.16315
0.7384 1.12686
0.7387 1.12368
0.7391 1.13238
0.7394 1.16069
0.7398 1.19034
0.7401 1.11748
0.7405 1.09964
0.7408 1.11711
0.7412 1.10177
0.7416 1.16406
0.7419 1.15129
0.7423 1.11842
0.7426 1.16020
0.7430 1.11655
0.7433 1.11377
0.7437 1.09855
0.7440 1.11839
0.7444 1.13048
0.7448 1.11160
0.7451 1.14625
0.7455 1.13456
0.7458 1.07825
0.7462 1.11821
0.7465 1.16368
0.7469 1.13442
0.7472 1.14699
0.7476 1.16310
0.7480 1.13431
0.7483 1.18102
0.7487 1.18968
0.7490 1.16459
0.7494 1.08659
0.7497 1.11570
0.7501 1.13988
0.7504 1.11542
0.7508 1.10253
0.7512 1.11349
0.7515 1.12474
0.7519 1.12646
0.7522 1.19087
0.7526 1.17244
0.7529 1.07723
0.7533 1.15895
0.7536 1.09391
0.7540 1.12159
0.7544 1.08596
0.7547 1.10538
0.7551 1.08536
0.7554 1.11464
0.7558 1.14886
0.7561 1.13333
0.7565 1.14271
0.7568 1.13107
0.7572 1.10728
0.7575 1.14619
0.7579 1.14276
0.7583 1.10571
0.7586 1.15066
0.7590 1.10980
0.7593 1.04590
0.7597 1.13377
0.7600 1.13377
0.7604 1.22980
0.7607 1.13901
0.7611 1.13909
0.7615 1.22851
0.7618 1.16506
0.7622 1.08293
0.7625 1.13377
0.7629 1.16450
0.7632 1.14221
0.7636 1.18399
0.7639 1.17832
0.7643 1.12641
0.7647 1.13901
0.7650 1.18099
0.7654 1.20205
0.7657 1.16991
0.7661 1.10643
0.7664 1.11081
0.7668 1.13199
0.7671 1.13909
0.7675 1.17114
0.7679 1.15868
0.7682 1.15148
0.7686 1.14563
0.7689 1.10323
0.7693 1.15101
0.7696 1.16699
0.7700 1.09075
0.7703 1.09210
0.7707 1.13624
0.7711 1.18895
0.7714 1.17648
0.7718 1.17565
0.7721 1.18667
0.7725 1.17480
0.7728 1.13731
0.7732 1.17280
0.7735 1.11696
0.7739 1.11096
0.7743 1.11374
0.7746 1.09642
0.7750 1.16535
0.7753 1.19265
0.7757 1.17500
0.7760 1.09454
0.7764 1.10019
0.7767 1.07291
0.7771 1.12165
0.7775 1.13054
0.7778 1.08120
0.7782 1.18165
0.7785 1.14566
0.7789 1.16375
0.7792 1.15374
0.7796 1.20797
0.7799 1.05425
0.7803 1.08273
0.7807 1.08525
0.7810 1.10608
0.7814 1.13798
0.7817 1.16814
0.7821 1.17201
0.7824 1.14361
0.7828 1.12427
0.7831 1.08759
0.7835 1.10740
0.7839 1.14502
0.7842 1.12941
0.7846 1.12862
0.7849 1.14009
0.7853 1.17266
0.7856 1.19423
0.7860 1.16063
0.7863 1.15433
0.7867 1.11118
0.7871 1.13849
0.7874 1.11785
0.7878 1.08620
0.7881 1.16594
0.7885 1.20775
0.7888 1.20234
0.7892 1.21117
0.7895 1.13642
0.7899 1.12134
0.7903 1.12625
0.7906 1.15452
0.7910 1.21979
0.7913 1.19114
0.7917 1.17047
0.7920 1.20307
0.7924 1.13996
0.7927 1.10503
0.7931 1.11444
0.7935 1.11902
0.7938 1.09235
0.7942 1.08754
0.7945 1.11475
0.7949 1.11833
0.7952 1.10708
0.7956 1.10734
0.7959 1.14220
0.7963 1.19259
0.7967 1.17695
0.7970 1.10641
0.7974 1.07206
0.7977 1.17128
0.7981 1.17559
0.7984 1.09526
0.7988 1.09194
0.7991 1.12710
0.7995 1.13180
0.7999 1.15070
0.8002 1.14267
0.8006 1.08989
0.8009 1.09457
0.8013 1.12625
0.8016 1.12767
0.8020 1.16538
0.8023 1.19114
0.8027 1.15364
0.8030 1.15665
0.8034 1.10641
0.8038 1.11732
0.8041 1.13936
0.8045 1.10709
0.8048 1.11411
0.8052 1.10275
0.8055 1.08620
0.8059 1.11399
0.8062 1.13706
0.8066 1.08161
0.8070 1.09375
0.8073 1.09096
0.8077 1.09145
0.8080 1.05247
0.8084 1.04887
0.8087 1.06478
0.8091 1.11810
0.8094 1.09309
0.8098 1.04673
0.8102 1.10129
0.8105 1.07220
0.8109 1.09593
0.8112 1.06440
0.8116 1.10447
0.8119 1.08713
0.8123 1.06864
0.8126 1.05536
0.8130 1.05482
0.8134 1.08697
0.8137 1.13922
0.8141 1.11576
0.8144 1.10163
0.8148 1.06013
0.8151 1.03256
0.8155 1.08805
0.8158 1.10593
0.8162 1.14608
0.8166 1.09466
0.8169 1.04771
0.8173 1.06112
0.8176 1.02709
0.8180 1.10753
0.8183 1.10923
0.8187 1.12127
0.8190 1.12094
0.8194 1.03821
0.8198 1.06289
0.8201 1.14828
0.8205 1.04138
0.8208 1.02540
0.8212 1.08999
0.8215 1.04191
0.8219 1.09867
0.8222 1.08439
0.8226 1.03552
0.8230 1.10114
0.8233 1.13899
0.8237 1.12526
0.8240 1.09192
0.8244 1.08633
0.8247 1.08809
0.8251 1.03567
0.8254 1.06561
0.8258 1.12906
0.8262 1.10994
0.8265 1.03967
0.8269 1.01938
0.8272 1.06557
0.8276 1.07981
0.8279 1.11179
0.8283 1.10847
0.8286 1.16430
0.8290 1.18790
0.8294 1.12907
0.8297 1.11068
0.8301 1.10106
0.8304 1.10872
0.8308 1.08827
0.8311 1.08985
0.8315 1.06690
0.8318 1.04656
0.8322 1.04572
0.8326 1.11397
0.8329 1.03694
0.8333 1.05351
0.8336 1.07015
0.8340 1.15957
0.8343 1.13148
0.8347 1.11935
0.8350 1.11678
0.8354 1.18678
0.8358 1.06799
0.8361 1.03912
0.8365 1.04234
0.8368 1.06118
0.8372 1.06940
0.8375 1.05350
0.8379 1.10327
0.8382 1.14805
0.8386 1.08712
0.8390 1.07550
0.8393 1.07260
0.8397 1.11831
0.8400 1.07264
0.8404 1.06505
0.8407 1.00490
0.8411 1.04753
0.8414 1.13181
0.8418 1.07409
0.8422 1.03597
0.8425 1.04430
0.8429 1.14575
0.8432 1.07804
0.8436 1.11217
0.8439 1.07344
0.8443 0.98682
0.8446 1.02632
0.8450 1.07232
0.8454 1.04679
0.8457 1.08746
0.8461 1.07142
0.8464 1.10341
0.8468 1.07264
0.8471 1.06864
0.8475 1.02150
0.8478 1.03570
0.8482 1.01752
0.8486 1.02231
0.8489 0.99740
0.8493 0.99453
0.8496 1.03087
0.8500 1.07873
0.8503 1.03087
0.8507 1.10970
0.8510 1.03192
0.8514 0.99309
0.8517 1.01152
0.8521 1.02129
0.8525 1.00959
0.8528 0.99126
0.8532 0.94792
0.8535 0.99342
0.8539 0.99750
0.8542 1.04871
0.8546 1.10448
0.8549 1.10001
0.8553 1.00917
0.8557 1.00624
0.8560 1.05766
0.8564 1.02656
0.8567 1.01192
0.8571 1.04306
0.8574 1.02811
0.8578 1.03063
0.8581 1.03812
0.8585 1.02666
0.8589 1.04807
0.8592 1.02474
0.8596 1.06239
0.8599 1.06637
0.8603 0.99284
0.8606 0.99106
0.8610 1.01394
0.8613 1.01588
0.8617 1.04572
0.8621 1.03107
0.8624 0.99511
0.8628 1.06296
0.8631 1.07317
0.8635 1.08837
0.8638 1.04533
0.8642 0.99239
0.8645 1.02380
0.8649 1.00684
0.8653 0.98749
0.8656 0.97533
0.8660 0.99702
0.8663 1.01588
0.8667 1.01488
0.8670 1.11318
0.8674 1.06818
0.8677 1.07404
0.8681 1.06566
0.8685 1.05367
0.8688 0.99749
0.8692 0.97712
0.8695 1.04924
0.8699 1.06222
0.8702 1.03933
0.8706 1.01488
0.8709 0.99678
0.8713 1.00959
0.8717 1.00967
0.8720 1.01426
0.8724 1.00157
0.8727 0.98503
0.8731 0.96304
0.8734 0.99045
0.8738 1.00203
0.8741 1.02433
0.8745 0.99434
0.8749 0.95305
0.8752 0.98097
0.8756 1.01570
0.8759 1.10757
0.8763 1.10296
0.8766 1.01894
0.8770 1.07886
0.8773 1.03609
0.8777 1.06733
0.8781 1.10009
0.8784 1.03727
0.8788 1.00798
0.8791 1.03090
0.8795 1.00168
0.8798 0.98226
0.8802 0.97008
0.8805 0.97630
0.8809 1.06102
0.8813 1.11452
0.8816 1.01894
0.8820 1.03794
0.8823 1.07650
0.8827 1.03727
0.8830 1.03609
0.8834 1.08173
0.8837 1.05450
0.8841 0.97610
0.8845 1.03559
0.8848 0.99260
0.8852 1.05257
0.8855 1.04123
0.8859 1.00618
0.8862 0.99926
0.8866 1.03794
0.8869 1.04103
0.8873 0.98151
0.8877 0.98305
0.8880 1.02436
0.8884 1.12583
0.8887 1.04103
0.8891 1.03559
0.8894 0.99334
0.8898 0.94467
0.8901 1.08750
0.8905 1.06919
0.8909 1.04132
0.8912 0.98106
0.8916 1.04423
0.8919 1.02436
0.8923 1.02436
0.8926 1.07555
0.8930 0.99506
0.8933 0.96085
0.8937 0.96433
0.8941 0.93627
0.8944 1.06712
0.8948 1.05912
0.8951 1.03750
0.8955 1.01304
0.8958 1.11263
0.8962 1.06732
0.8965 1.01283
0.8969 0.96613
0.8972 0.96792
0.8976 0.99423
0.8980 0.98860
0.8983 0.95396
0.8987 0.96641
0.8990 1.03801
0.8994 1.04586
0.8997 0.98212
0.9001 0.98965
0.9004 1.03471
0.9008 1.02345
0.9012 1.01304
0.9015 0.99557
0.9019 1.00145
0.9022 1.00900
0.9026 0.99925
0.9029 1.02463
0.9033 1.01438
0.9036 0.97612
0.9040 0.99463
0.9044 1.00094
0.9047 0.96527
0.9051 1.00276
0.9054 1.01034
0.9058 0.94947
0.9061 0.93503
0.9065 0.93857
0.9068 0.97224
0.9072 0.95769
0.9076 0.97624
0.9079 0.99241
0.9083 0.97203
0.9086 0.98645
0.9090 0.93635
0.9093 1.02546
0.9097 1.05708
0.9100 0.97315
0.9104 1.00238
0.9108 0.98420
0.9111 0.93367
0.9115 0.95649
0.9118 0.91436
0.9122 0.94286
0.9125 0.91909
0.9129 0.94026
0.9132 0.99707
0.9136 0.98737
0.9140 1.01709
0.9143 0.94088
0.9147 1.00089
0.9150 0.96619
0.9154 0.96217
0.9157 0.99104
0.9161 0.97820
0.9164 0.94945
0.9168 0.92349
0.9172 0.98395
0.9175 1.03718
0.9179 1.01667
0.9182 1.04208
0.9186 0.97484
0.9189 1.05500
0.9193 0.98541
0.9196 1.00563
0.9200 1.00534
0.9204 0.94289
0.9207 0.94168
0.9211 0.95383
0.9214 0.99924
0.9218 1.00432
0.9221 1.04628
0.9225 0.97881
0.9228 0.96868
0.9232 0.97407
0.9236 0.96942
0.9239 0.95798
0.9243 0.98126
0.9246 1.03536
0.9250 1.00273
0.9253 0.92238
0.9257 0.93144
0.9260 1.00319
0.9264 0.96964
0.9268 0.93832
0.9271 0.91284
0.9275 0.89190
0.9278 0.97181
0.9282 1.00705
0.9285 0.98302
0.9289 1.01137
0.9292 0.97878
0.9296 0.91007
0.9300 0.96547
0.9303 1.07159
0.9307 1.00273
0.9310 1.00319
0.9314 1.00625
0.9317 1.00625
0.9321 1.00705
0.9324 1.01137
0.9328 1.11879
0.9332 0.95365
0.9335 1.00625
0.9339 0.96354
0.9342 1.00084
0.9346 1.04493
0.9349 1.04104
0.9353 0.94791
0.9356 1.04439
0.9360 1.01895
0.9364 1.04886
0.9367 0.99744
0.9371 1.04886
0.9374 1.04886
0.9378 1.04886
0.9381 1.04886
0.9385 1.09656
0.9388 1.04493
0.9392 1.02537
0.9396 0.94298
0.9399 1.04439
0.9403 1.04782
0.9406 1.04439
0.9410 1.04104
0.9413 1.01966
0.9417 0.95533
0.9420 1.05500
0.9424 0.97112
0.9427 1.04886
0.9431 1.15534
0.9435 1.06333
0.9438 1.09656
0.9442 1.09766
0.9445 1.05500
0.9449 1.11692
0.9452 0.96699
0.9456 1.04104
0.9459 1.02245
0.9463 1.04104
0.9467 1.09709
0.9470 1.02860
0.9474 1.02860
0.9477 1.02824
0.9481 1.02726
0.9484 1.06333
0.9488 0.97219
0.9491 0.94810
0.9495 0.97150
0.9499 1.12540
0.9502 1.06333
0.9506 1.06333
0.9509 1.02824
0.9513 1.02860
0.9516 1.02824
0.9520 1.02726
0.9523 0.98421
0.9527 0.97875
0.9531 1.06876
0.9534 1.02726
0.9538 1.02726
0.9541 0.98410
0.9545 0.91344
0.9548 0.98540
0.9552 1.09560
0.9555 1.00165
0.9559 1.07296
0.9563 1.00165
0.9566 1.00165
0.9570 1.03116
0.9573 1.00002
0.9577 1.00002
0.9580 0.94041
0.9584 0.92767
0.9587 1.00060
0.9591 1.00060
0.9595 1.01561
0.9598 1.08840
0.9602 1.00060
0.9605 0.99855
0.9609 1.02687
0.9612 1.00809
0.9616 0.93452
0.9619 1.00165
0.9623 1.07798
0.9627 0.96182
0.9630 0.97887
0.9634 1.00060
0.9637 1.00060
0.9641 0.96486
0.9644 0.99595
0.9648 1.00753
0.9651 1.03001
0.9655 1.03148
0.9659 0.92911
0.9662 0.93902
0.9666 1.05236
0.9669 0.99049
0.9673 0.92607
0.9676 1.04139
0.9680 1.08451
0.9683 1.01868
0.9687 1.01612
0.9691 0.98072
0.9694 0.94428
0.9698 0.98530
0.9701 1.04529
0.9705 1.06919
0.9708 1.01419
0.9712 0.95694
0.9715 0.94723
0.9719 1.00483
0.9723 1.00483
0.9726 1.02054
0.9730 0.98277
0.9733 0.90356
0.9737 0.94895
0.9740 0.99334
0.9744 0.99151
0.9747 0.91491
0.9751 1.05542
0.9755 1.04804
0.9758 1.06454
0.9762 1.04530
0.9765 0.99424
0.9769 0.99136
0.9772 0.89181
0.9776 1.01464
0.9779 1.01114
0.9783 0.99151
0.9787 1.03754
0.9790 0.99136
0.9794 0.98622
0.9797 1.04880
0.9801 0.97281
0.9804 0.96507
0.9808 1.04894
0.9811 0.89023
0.9815 0.99524
0.9819 0.96449
0.9822 0.90063
0.9826 0.92245
0.9829 0.98466
0.9833 0.98622
0.9836 0.95688
0.9840 0.99578
0.9843 0.92366
0.9847 1.00540
0.9851 1.03631
0.9854 0.95711
0.9858 1.00540
0.9861 0.98588
0.9865 1.09499
0.9868 0.99524
0.9872 0.99578
0.9875 1.03244
0.9879 1.01662
0.9882 1.01975
0.9886 0.95602
0.9890 0.98532
0.9893 1.02834
0.9897 1.02060
0.9900 1.07819
0.9904 0.99578
0.9907 1.07443
0.9911 1.02455
0.9914 1.05784
0.9918 1.12946
0.9922 1.08194
0.9925 0.95199
0.9929 1.02060
0.9932 0.95142
0.9936 1.05035
0.9939 1.02455
0.9943 1.01975
0.9946 1.11554
0.9950 1.00012
0.9954 1.02455
0.9957 1.02834
0.9961 1.12456
0.9964 1.01795
0.9968 1.10931
0.9971 1.08584
0.9975 1.03292
0.9978 0.97182
0.9982 1.02455
0.9986 0.94901
0.9989 0.95843
0.9993 0.91828
0.9996 0.91694
1.0000 1.02455
1.0003 1.00000
