Asteroid designations ( Number, Name, Temporary designation): 1580, Betulia,  1950 KA, J50K00A
Observation was done on (UT) (format YYYY-MM-DD-hh): 2015 - 05 - 26 - 21:30
Observation was made by : M. Popescu, I. Ordonez E-mail; mpopescu@imcce.fr
At observatory with UAI code: 950
Obsv. comments: 
The spectrum was published in the article: Unpublished;Contact:mpopescu@imcce.fr
The normalization of this spectrum was made for the wavelength: 0.550 microns.
Original name of the file was: 1580vshd109967.txt
Wavelength[um]	Reflectance	sigma(optional)
0.4002000 0.89153 0.03563
0.4006000 0.91936 0.04154
0.4010000 0.94942 0.03503
0.4014000 0.98385 0.03502
0.4018000 0.89366 0.03728
0.4022000 0.87508 0.03109
0.4026000 0.87975 0.02735
0.4030000 0.90372 0.03018
0.4034000 0.84908 0.03168
0.4038000 0.86898 0.03323
0.4042000 0.90087 0.03349
0.4046000 0.91550 0.03280
0.4050000 0.92566 0.03528
0.4054000 0.89813 0.03152
0.4058000 0.85811 0.03068
0.4062000 0.81922 0.03162
0.4066000 0.84024 0.03102
0.4070000 0.85862 0.02845
0.4074000 0.93926 0.03433
0.4078000 0.95968 0.03176
0.4091000 0.98009 0.02675
0.4095000 0.90697 0.02901
0.4099000 0.89488 0.03030
0.4103000 0.96049 0.03571
0.4107000 0.97420 0.03036
0.4111000 0.96912 0.03040
0.4115000 0.95308 0.02939
0.4119000 0.96374 0.02839
0.4123000 0.92373 0.02738
0.4127000 0.92180 0.02637
0.4131000 0.87101 0.02693
0.4135000 0.85314 0.02707
0.4139000 0.85771 0.02745
0.4143000 0.92728 0.02782
0.4147000 0.91123 0.02768
0.4151000 0.94952 0.02572
0.4155000 0.89315 0.02560
0.4159000 0.94820 0.02548
0.4163000 0.93480 0.02596
0.4168000 0.91347 0.02644
0.4172000 0.90331 0.02692
0.4176000 0.89427 0.02610
0.4180000 0.96232 0.02668
0.4184000 1.02356 0.02739
0.4188000 0.92068 0.02688
0.4192000 0.86543 0.02637
0.4196000 0.87650 0.02585
0.4200000 0.88076 0.02534
0.4204000 0.95826 0.02527
0.4208000 0.88767 0.02521
0.4212000 0.87863 0.02436
0.4216000 0.84684 0.02469
0.4220000 0.84511 0.02502
0.4224000 0.89783 0.02535
0.4228000 0.87508 0.02439
0.4232000 0.88899 0.02344
0.4236000 0.90483 0.02333
0.4240000 0.87437 0.02321
0.4244000 0.92769 0.02310
0.4248000 0.90920 0.02299
0.4253000 0.87954 0.02318
0.4257000 0.91194 0.02337
0.4261000 0.81901 0.02355
0.4265000 0.84379 0.02372
0.4269000 0.95155 0.02390
0.4273000 0.92708 0.02363
0.4277000 0.84745 0.02365
0.4281000 0.92169 0.02367
0.4285000 0.93977 0.02184
0.4289000 0.90565 0.02436
0.4293000 0.83790 0.02255
0.4297000 0.81597 0.02326
0.4301000 0.84207 0.02469
0.4305000 0.80855 0.02747
0.4309000 0.86004 0.02520
0.4313000 0.97410 0.02562
0.4317000 0.98314 0.02336
0.4321000 0.93094 0.02033
0.4325000 0.95684 0.02094
0.4329000 0.87762 0.01948
0.4334000 0.91387 0.02231
0.4338000 0.94282 0.02126
0.4342000 0.99695 0.02314
0.4346000 0.96161 0.02224
0.4350000 0.97552 0.02151
0.4354000 0.95257 0.01921
0.4358000 0.95958 0.01905
0.4362000 0.90514 0.01961
0.4366000 0.88848 0.01952
0.4370000 0.93398 0.01886
0.4374000 0.93337 0.01943
0.4378000 0.92474 0.01814
0.4382000 0.88808 0.01981
0.4386000 0.90301 0.01850
0.4390000 0.90443 0.01967
0.4394000 0.91458 0.01813
0.4398000 0.91844 0.01967
0.4402000 0.86492 0.01901
0.4406000 0.87020 0.01733
0.4411000 0.92433 0.01842
0.4415000 0.90940 0.01873
0.4419000 0.96496 0.01807
0.4423000 0.97776 0.01821
0.4427000 0.96791 0.01707
0.4431000 0.95318 0.01820
0.4435000 0.94536 0.01714
0.4439000 1.00437 0.01700
0.4443000 0.96557 0.01690
0.4447000 0.95267 0.01679
0.4451000 0.86787 0.01669
0.4455000 0.93784 0.01934
0.4459000 0.99259 0.02034
0.4463000 0.99259 0.01726
0.4467000 0.94576 0.01761
0.4471000 0.92728 0.01713
0.4475000 0.94597 0.01528
0.4479000 0.93683 0.01549
0.4483000 0.99157 0.01639
0.4488000 0.98710 0.01499
0.4492000 0.98223 0.01777
0.4496000 0.96019 0.01689
0.4500000 0.97796 0.01629
0.4504000 0.92180 0.01490
0.4508000 0.96252 0.01433
0.4512000 0.96120 0.01634
0.4516000 0.97075 0.01561
0.4520000 0.95409 0.01468
0.4524000 0.92931 0.01561
0.4528000 0.94221 0.01671
0.4532000 0.99878 0.01511
0.4536000 0.98639 0.01608
0.4540000 0.97471 0.01463
0.4544000 0.96527 0.01684
0.4548000 0.96598 0.01619
0.4552000 1.01584 0.01417
0.4556000 1.04509 0.01625
0.4561000 0.96009 0.01351
0.4565000 0.94891 0.01395
0.4569000 0.95907 0.01306
0.4573000 0.92362 0.01326
0.4577000 0.95968 0.01573
0.4581000 0.95541 0.01471
0.4585000 0.93348 0.01436
0.4589000 0.95460 0.01463
0.4593000 0.96374 0.01519
0.4597000 0.94272 0.01423
0.4601000 0.97735 0.01573
0.4605000 0.96537 0.01418
0.4609000 0.95551 0.01298
0.4613000 0.96902 0.01497
0.4617000 0.92647 0.01334
0.4621000 0.92637 0.01336
0.4625000 0.99228 0.01291
0.4629000 0.97044 0.01409
0.4634000 0.94211 0.01348
0.4638000 0.94881 0.01356
0.4642000 0.96445 0.01442
0.4646000 0.99543 0.01480
0.4650000 0.98690 0.01378
0.4654000 1.00559 0.01323
0.4658000 0.98629 0.01319
0.4662000 0.94302 0.01313
0.4666000 0.99401 0.01446
0.4670000 1.00386 0.01389
0.4674000 1.02722 0.01484
0.4678000 0.99888 0.01390
0.4682000 0.96831 0.01273
0.4686000 1.00203 0.01350
0.4690000 0.97827 0.01341
0.4694000 0.98050 0.01399
0.4698000 0.95308 0.01418
0.4703000 0.99462 0.01415
0.4707000 1.00741 0.01369
0.4711000 0.96466 0.01333
0.4715000 0.98862 0.01336
0.4719000 0.99015 0.01200
0.4723000 1.00701 0.01327
0.4727000 1.00203 0.01322
0.4731000 0.96872 0.01245
0.4735000 0.95887 0.01264
0.4739000 0.98141 0.01255
0.4743000 1.02519 0.01215
0.4747000 0.99716 0.01266
0.4751000 1.03991 0.01256
0.4755000 1.00975 0.01277
0.4759000 1.00000 0.01237
0.4763000 0.99807 0.01402
0.4767000 0.93114 0.01203
0.4772000 0.95277 0.01252
0.4776000 1.00457 0.01164
0.4780000 0.96181 0.01264
0.4784000 1.00132 0.01282
0.4788000 0.97237 0.01278
0.4792000 0.97258 0.01198
0.4796000 0.96831 0.01191
0.4800000 0.94576 0.01211
0.4804000 1.00091 0.01250
0.4808000 1.03159 0.01404
0.4812000 0.97451 0.01164
0.4816000 0.99523 0.01119
0.4820000 0.94546 0.01148
0.4824000 0.98934 0.01370
0.4828000 0.97979 0.01217
0.4832000 0.96110 0.01082
0.4836000 0.97603 0.01166
0.4841000 0.98223 0.01190
0.4845000 1.00132 0.01195
0.4849000 0.99777 0.01091
0.4853000 0.99309 0.01338
0.4857000 1.03900 0.01470
0.4861000 1.06277 0.01597
0.4865000 1.03006 0.01320
0.4869000 1.02214 0.01334
0.4873000 1.02224 0.01303
0.4877000 1.01259 0.01163
0.4881000 0.98934 0.01215
0.4885000 0.99411 0.01228
0.4889000 1.00467 0.01235
0.4893000 0.98578 0.01169
0.4897000 0.96801 0.01107
0.4901000 0.97664 0.01206
0.4906000 1.00863 0.01156
0.4910000 0.97116 0.01090
0.4914000 0.98182 0.01194
0.4918000 0.97268 0.01163
0.4922000 0.96669 0.01263
0.4926000 1.00985 0.01243
0.4930000 0.98477 0.01142
0.4934000 0.98761 0.01139
0.4938000 1.01615 0.01133
0.4942000 1.01056 0.01148
0.4946000 0.99218 0.01105
0.4950000 1.00010 0.01096
0.4954000 0.99259 0.01068
0.4958000 0.98771 0.01028
0.4962000 1.00355 0.01100
0.4966000 0.97959 0.01056
0.4971000 0.99980 0.01171
0.4975000 0.99025 0.01142
0.4979000 0.98649 0.01084
0.4983000 1.00498 0.01151
0.4987000 1.01493 0.01194
0.4991000 0.99462 0.01239
0.4995000 0.96780 0.01005
0.4999000 1.00792 0.01110
0.5003000 1.02539 0.01190
0.5007000 1.01625 0.01179
0.5011000 0.99726 0.01137
0.5015000 1.03849 0.01205
0.5019000 1.05434 0.01279
0.5023000 1.03616 0.01194
0.5027000 0.98192 0.01119
0.5032000 1.00965 0.01145
0.5036000 1.03230 0.01188
0.5040000 1.01706 0.01114
0.5044000 1.00508 0.01183
0.5048000 1.01016 0.01088
0.5052000 1.00538 0.01154
0.5056000 1.02529 0.01130
0.5060000 1.01290 0.01080
0.5064000 0.99746 0.01054
0.5068000 0.98537 0.01018
0.5072000 0.99035 0.01017
0.5076000 0.98639 0.01135
0.5080000 1.03555 0.01039
0.5084000 0.99238 0.01059
0.5088000 0.98568 0.01083
0.5093000 0.98893 0.01087
0.5097000 1.00589 0.01148
0.5101000 1.00355 0.01169
0.5105000 1.00416 0.00997
0.5109000 1.02417 0.01027
0.5113000 0.97339 0.01064
0.5117000 1.00112 0.01126
0.5121000 0.99543 0.01024
0.5125000 1.00122 0.01068
0.5129000 1.04469 0.01072
0.5133000 1.01716 0.01158
0.5137000 0.95765 0.01059
0.5141000 0.97583 0.01038
0.5145000 1.00528 0.01058
0.5149000 0.99655 0.01041
0.5154000 1.00264 0.01083
0.5158000 1.01402 0.00985
0.5162000 0.97725 0.01041
0.5166000 0.97745 0.01194
0.5170000 0.97674 0.01186
0.5174000 0.95470 0.01089
0.5178000 0.96689 0.01014
0.5182000 0.93967 0.01103
0.5186000 0.99096 0.01077
0.5190000 1.00477 0.01201
0.5194000 1.01036 0.00981
0.5198000 1.01046 0.01093
0.5202000 1.00193 0.01028
0.5206000 1.01909 0.01276
0.5210000 1.00173 0.01115
0.5215000 0.98131 0.01008
0.5219000 0.96080 0.01051
0.5223000 0.95582 0.00973
0.5227000 1.01138 0.01140
0.5231000 0.98619 0.01068
0.5235000 1.02763 0.01052
0.5239000 1.03595 0.00980
0.5243000 1.00071 0.00991
0.5247000 1.02041 0.01006
0.5251000 1.03758 0.00964
0.5255000 1.00010 0.01025
0.5259000 0.98964 0.01093
0.5263000 0.98862 0.01115
0.5267000 1.00863 0.01191
0.5272000 1.01473 0.01040
0.5276000 0.99573 0.01058
0.5280000 1.00030 0.01032
0.5284000 1.02356 0.01016
0.5288000 1.05576 0.01007
0.5292000 1.02874 0.01074
0.5296000 1.01422 0.00929
0.5300000 1.02295 0.00958
0.5304000 1.02417 0.01093
0.5308000 0.99177 0.01001
0.5312000 0.98984 0.00975
0.5316000 1.01879 0.00944
0.5320000 1.00802 0.01046
0.5324000 1.00477 0.00930
0.5329000 1.00884 0.01057
0.5333000 1.00752 0.00933
0.5337000 1.00965 0.00946
0.5341000 1.03920 0.00995
0.5345000 0.99990 0.00905
0.5349000 1.01178 0.00998
0.5353000 1.02732 0.00963
0.5357000 1.01310 0.00872
0.5361000 1.04662 0.00951
0.5365000 1.00295 0.00957
0.5369000 0.99543 0.00947
0.5373000 1.00833 0.01005
0.5377000 1.02153 0.01036
0.5381000 1.03220 0.00937
0.5386000 1.02102 0.00972
0.5390000 0.97583 0.01033
0.5394000 1.00660 0.01014
0.5398000 1.00416 0.01036
0.5402000 1.00152 0.00961
0.5406000 1.06246 0.01042
0.5410000 1.02458 0.01026
0.5414000 1.04113 0.01012
0.5418000 1.02265 0.01051
0.5422000 1.01473 0.00992
0.5426000 1.01980 0.01069
0.5430000 1.01645 0.00905
0.5434000 0.99543 0.01049
0.5438000 1.01463 0.01006
0.5443000 0.98761 0.01050
0.5447000 0.99127 0.00946
0.5451000 1.02285 0.01000
0.5455000 1.02925 0.00949
0.5459000 1.01869 0.00943
0.5463000 0.99665 0.00934
0.5467000 0.99248 0.01007
0.5471000 1.00904 0.00955
0.5475000 1.03687 0.00907
0.5479000 1.04042 0.00978
0.5483000 1.03656 0.00929
0.5487000 1.01554 0.00960
0.5491000 1.01452 0.00958
0.5495000 1.01767 0.01012
0.5500000 1.00000 0.00939
0.5504000 0.99837 0.00920
0.5508000 1.00061 0.01007
0.5512000 1.00904 0.01003
0.5516000 1.01503 0.00892
0.5520000 1.01452 0.00944
0.5524000 1.03524 0.01035
0.5528000 1.01473 0.00945
0.5532000 0.98507 0.00999
0.5536000 1.02732 0.01051
0.5540000 1.01300 0.00878
0.5544000 1.05576 0.00947
0.5548000 1.02915 0.00983
0.5553000 1.04205 0.00950
0.5557000 1.01249 0.00956
0.5561000 0.99990 0.00985
0.5565000 1.01584 0.01040
0.5569000 1.05698 0.01402
0.5573000 1.03484 0.01778
0.5577000 1.03534 0.01889
0.5581000 1.03971 0.01627
0.5585000 0.99726 0.01062
0.5589000 0.97755 0.00983
0.5593000 1.01391 0.01034
0.5597000 1.03585 0.01027
0.5601000 1.01574 0.01022
0.5606000 1.03281 0.00906
0.5610000 1.01473 0.01044
0.5614000 0.97461 0.00923
0.5618000 1.04743 0.00887
0.5622000 1.05099 0.00903
0.5626000 1.01635 0.01028
0.5630000 1.05850 0.00949
0.5634000 1.01859 0.00941
0.5638000 1.01026 0.00920
0.5642000 1.02803 0.00915
0.5646000 1.03880 0.00979
0.5650000 1.01056 0.00981
0.5654000 1.02600 0.00966
0.5659000 1.04408 0.01022
0.5663000 1.06541 0.01063
0.5667000 1.04144 0.00957
0.5671000 1.05231 0.00934
0.5675000 1.04428 0.00976
0.5679000 1.02793 0.01062
0.5683000 1.02275 0.00959
0.5687000 0.99959 0.00882
0.5691000 1.02326 0.00858
0.5695000 1.01097 0.01031
0.5699000 0.98609 0.00934
0.5703000 0.99909 0.01118
0.5707000 1.02681 0.01021
0.5712000 1.03159 0.00971
0.5716000 0.98771 0.01020
0.5720000 1.02884 0.00886
0.5724000 0.98913 0.00868
0.5728000 1.00620 0.00938
0.5732000 1.00995 0.00962
0.5736000 0.99096 0.00948
0.5740000 1.00142 0.00924
0.5744000 1.01676 0.01008
0.5748000 1.02925 0.00946
0.5752000 1.03016 0.00938
0.5756000 1.01371 0.00883
0.5761000 1.00569 0.00911
0.5765000 0.99086 0.00951
0.5769000 1.02133 0.00972
0.5773000 1.00711 0.00892
0.5777000 1.00630 0.00937
0.5781000 1.00914 0.01008
0.5785000 0.99157 0.00964
0.5789000 1.00274 0.00962
0.5793000 0.99553 0.00986
0.5797000 1.00488 0.01179
0.5801000 1.07739 0.00950
0.5805000 1.03981 0.00955
0.5809000 1.03545 0.00947
0.5814000 0.99289 0.00950
0.5818000 0.99990 0.00944
0.5822000 1.01513 0.00860
0.5826000 1.01239 0.00911
0.5830000 1.01859 0.00894
0.5834000 1.03545 0.00913
0.5838000 1.04286 0.01025
0.5842000 1.02153 0.00943
0.5846000 1.01107 0.00848
0.5850000 1.02326 0.00911
0.5854000 1.03585 0.00952
0.5858000 0.98832 0.00911
0.5863000 1.03758 0.00933
0.5867000 1.03565 0.01015
0.5871000 1.02153 0.00917
0.5875000 1.00396 0.00956
0.5879000 1.00559 0.01001
0.5883000 1.02377 0.01145
0.5887000 1.00853 0.01324
0.5891000 0.99624 0.01355
0.5895000 1.03047 0.01168
0.5899000 1.06175 0.01083
0.5907000 1.09293 0.01042
0.5912000 1.12421 0.00889
0.5916000 1.10725 0.00961
0.5920000 1.09029 0.01101
0.5924000 1.07343 0.01006
0.5928000 1.05647 0.01010
0.5940000 1.03961 0.00895
0.5944000 1.02265 0.00917
0.5948000 1.02275 0.00985
0.5952000 1.03331 0.01011
0.5956000 1.02641 0.00850
0.5961000 1.02163 0.00895
0.5965000 0.99228 0.00871
0.5969000 1.02072 0.00910
0.5973000 1.00762 0.00967
0.5977000 0.97674 0.00901
0.5981000 1.03331 0.00909
0.5985000 1.06551 0.00953
0.5989000 1.01168 0.00959
0.5993000 1.03209 0.00898
0.5997000 0.98812 0.00874
0.6001000 1.03565 0.00907
0.6005000 0.99685 0.01020
0.6010000 1.00091 0.00994
0.6014000 1.00538 0.01000
0.6018000 1.06825 0.01069
0.6022000 1.02031 0.00861
0.6026000 1.01198 0.00890
0.6030000 1.02874 0.00929
0.6034000 1.00762 0.00904
0.6038000 1.02763 0.00951
0.6042000 1.00660 0.00921
0.6046000 1.00386 0.00924
0.6050000 1.02184 0.00966
0.6054000 1.05454 0.00921
0.6059000 1.06571 0.00996
0.6063000 1.01198 0.00840
0.6067000 1.00680 0.00966
0.6071000 1.00559 0.00902
0.6075000 1.03352 0.00971
0.6079000 1.02935 0.00996
0.6083000 1.04845 0.01067
0.6087000 1.05322 0.00962
0.6091000 1.04042 0.01089
0.6095000 1.01848 0.01215
0.6099000 1.04012 0.01342
0.6104000 1.06084 0.01469
0.6108000 1.05972 0.01595
0.6112000 1.02732 0.00878
0.6116000 1.03484 0.00892
0.6120000 1.02793 0.00869
0.6124000 1.01828 0.01022
0.6128000 1.01706 0.00978
0.6132000 1.04184 0.00933
0.6136000 1.05058 0.00942
0.6140000 1.04052 0.01018
0.6144000 1.02082 0.00969
0.6148000 1.02864 0.01005
0.6153000 1.03951 0.01056
0.6157000 0.99462 0.01030
0.6161000 1.02519 0.00983
0.6165000 1.01635 0.01023
0.6169000 1.03697 0.00928
0.6173000 1.04621 0.00963
0.6177000 1.03159 0.00942
0.6181000 1.01554 0.00839
0.6185000 1.01097 0.00878
0.6189000 0.98426 0.00900
0.6193000 1.01818 0.00985
0.6198000 1.05129 0.01085
0.6202000 1.04164 0.00927
0.6206000 1.03128 0.00933
0.6210000 1.03829 0.00992
0.6214000 1.05099 0.00947
0.6218000 1.03545 0.00986
0.6222000 1.00985 0.00913
0.6226000 0.98233 0.00930
0.6230000 0.99330 0.00948
0.6234000 1.04702 0.01175
0.6238000 1.02854 0.00966
0.6243000 1.01127 0.01057
0.6247000 0.99015 0.01042
0.6251000 1.02732 0.01082
0.6255000 1.03382 0.01056
0.6259000 1.02265 0.01054
0.6263000 1.02163 0.01010
0.6267000 1.03738 0.01029
0.6271000 1.02884 0.01001
0.6275000 1.01107 0.00930
0.6279000 1.08135 0.01038
0.6283000 0.98751 0.00938
0.6288000 0.97918 0.01036
0.6292000 1.01005 0.01374
0.6296000 1.01280 0.01728
0.6300000 1.02702 0.01795
0.6304000 1.01635 0.01450
0.6308000 0.99005 0.01130
0.6312000 1.00904 0.00879
0.6316000 1.02763 0.00976
0.6320000 1.01909 0.00965
0.6324000 1.05342 0.01058
0.6328000 1.00995 0.01016
0.6333000 1.01138 0.01075
0.6337000 1.00975 0.00910
0.6341000 1.04621 0.00982
0.6345000 1.05302 0.01046
0.6349000 1.02245 0.00969
0.6353000 0.99289 0.00963
0.6357000 1.00335 0.01212
0.6361000 1.03626 0.01297
0.6365000 1.05515 0.01335
0.6369000 1.01158 0.01075
0.6373000 1.03697 0.00950
0.6378000 1.03392 0.00947
0.6382000 1.03717 0.00886
0.6386000 1.01716 0.00897
0.6390000 1.00223 0.00955
0.6394000 1.00091 0.00978
0.6398000 0.99279 0.00998
0.6402000 0.99259 0.00997
0.6406000 1.01909 0.00998
0.6410000 1.02935 0.00953
0.6414000 1.01138 0.00896
0.6418000 0.99482 0.01048
0.6423000 1.00416 0.00938
0.6427000 1.00386 0.00972
0.6431000 1.01838 0.01017
0.6435000 1.03108 0.01037
0.6439000 1.01290 0.00935
0.6443000 0.99563 0.00850
0.6447000 1.00691 0.00937
0.6451000 1.02143 0.00933
0.6455000 1.03128 0.01097
0.6459000 0.99035 0.00920
0.6463000 1.03016 0.01040
0.6468000 1.04509 0.01108
0.6472000 1.04296 0.01056
0.6476000 0.99594 0.00957
0.6480000 0.97359 0.00959
0.6484000 1.01473 0.00911
0.6488000 1.02255 0.00970
0.6492000 0.99563 0.00963
0.6496000 0.97451 0.01124
0.6500000 0.99797 0.00969
0.6504000 1.02133 0.01039
0.6509000 0.98751 0.00968
0.6513000 0.95054 0.00925
0.6517000 1.04672 0.00966
0.6521000 1.03453 0.01023
0.6525000 0.98578 0.00970
0.6529000 0.99827 0.00938
0.6533000 0.98670 0.00952
0.6537000 0.98263 0.00976
0.6541000 0.99736 0.01039
0.6545000 1.02752 0.00996
0.6549000 0.97593 0.00935
0.6554000 1.00376 0.01232
0.6558000 0.99797 0.01217
0.6562000 1.08795 0.01233
0.6566000 1.06998 0.01231
0.6570000 1.02184 0.01089
0.6574000 1.03880 0.01044
0.6578000 1.00498 0.00989
0.6582000 0.94323 0.00984
0.6586000 1.00416 0.01019
0.6590000 0.99624 0.01014
0.6595000 1.00122 0.00968
0.6599000 0.96100 0.01035
0.6603000 0.97177 0.01007
0.6607000 1.01239 0.01043
0.6611000 0.98944 0.00854
0.6615000 0.99634 0.00941
0.6619000 1.02326 0.00958
0.6623000 1.00934 0.00975
0.6627000 1.01686 0.00927
0.6631000 0.99909 0.00934
0.6635000 0.98781 0.01008
0.6640000 1.02062 0.01052
0.6644000 0.99452 0.00947
0.6648000 0.99837 0.00998
0.6652000 1.02336 0.01007
0.6656000 0.97105 0.00976
0.6660000 0.98304 0.00905
0.6664000 1.00213 0.00940
0.6668000 0.97126 0.00947
0.6672000 0.95348 0.00925
0.6676000 0.96080 0.00991
0.6681000 1.00914 0.00949
0.6685000 0.96405 0.00873
0.6689000 0.98091 0.00940
0.6693000 1.01523 0.00951
0.6697000 1.00223 0.01002
0.6701000 1.03798 0.01019
0.6705000 1.03697 0.01000
0.6709000 1.01300 0.01092
0.6713000 0.96466 0.00944
0.6717000 1.04631 0.00958
0.6722000 1.03453 0.01089
0.6726000 0.97034 0.01026
0.6730000 0.98730 0.00891
0.6734000 1.01391 0.01037
0.6738000 0.99898 0.00975
0.6742000 1.01991 0.01058
0.6746000 0.99370 0.00953
0.6750000 1.00091 0.01013
0.6754000 1.00579 0.01089
0.6758000 0.97329 0.00987
0.6763000 0.96841 0.00981
0.6767000 0.98091 0.00898
0.6771000 0.96293 0.00951
0.6775000 0.96120 0.00969
0.6779000 1.01503 0.01063
0.6783000 1.00132 0.00963
0.6787000 1.00010 0.00948
0.6791000 0.96902 0.00988
0.6795000 0.98984 0.01013
0.6799000 0.98649 0.00999
0.6804000 0.97948 0.00944
0.6808000 1.00091 0.01118
0.6812000 0.97969 0.01046
0.6816000 0.96659 0.00977
0.6820000 0.98477 0.01098
0.6824000 1.01198 0.01040
0.6828000 0.97847 0.01267
0.6832000 0.97166 0.01030
0.6836000 0.99919 0.01104
0.6840000 1.00325 0.01059
0.6845000 1.01534 0.01104
0.6849000 0.98263 0.01026
0.6853000 0.95663 0.01016
0.6857000 0.95277 0.01137
0.6861000 0.98700 0.01300
0.6865000 0.99878 0.01191
0.6869000 1.01595 0.01354
0.6873000 1.00041 0.01134
0.6877000 0.97075 0.01156
0.6881000 0.98659 0.01160
0.6886000 0.95724 0.01030
0.6890000 0.97166 0.01165
0.6894000 0.98040 0.01020
0.6898000 0.97166 0.01165
0.6902000 0.94810 0.01004
0.6906000 0.96496 0.00988
0.6910000 0.99055 0.01113
0.6914000 0.96130 0.01121
0.6918000 0.97908 0.01114
0.6923000 1.01300 0.01087
0.6927000 0.97339 0.01038
0.6931000 0.99655 0.01003
0.6935000 0.96821 0.01143
0.6939000 0.91154 0.01051
0.6943000 0.99269 0.01184
0.6947000 0.97237 0.01145
0.6951000 0.95785 0.01009
0.6955000 0.97369 0.00996
0.6959000 0.98192 0.00953
0.6964000 1.01016 0.01079
0.6968000 1.00244 0.01052
0.6972000 1.05809 0.01168
0.6976000 1.01178 0.01198
0.6980000 0.98202 0.01114
0.6984000 0.98426 0.01050
0.6988000 0.95155 0.01043
0.6992000 0.97959 0.00998
0.6996000 0.95186 0.00993
0.7000000 1.00284 0.00970
0.7005000 1.00528 0.01079
0.7009000 0.99685 0.01108
0.7013000 0.96090 0.00972
0.7017000 1.00112 0.01069
0.7021000 1.01503 0.01073
0.7025000 0.99137 0.00985
0.7029000 0.99340 0.01059
0.7033000 0.98273 0.01010
0.7037000 0.96141 0.01127
0.7042000 0.97237 0.01117
0.7046000 0.95145 0.01010
0.7050000 0.98751 0.01029
0.7054000 0.96120 0.01050
0.7058000 0.96455 0.00956
0.7062000 0.97603 0.01085
0.7066000 0.99624 0.01100
0.7070000 0.97908 0.01073
0.7074000 1.01493 0.01122
0.7079000 0.98202 0.00971
0.7083000 0.97603 0.01046
0.7087000 0.98619 0.01034
0.7091000 1.02610 0.01063
0.7095000 0.95348 0.01021
0.7099000 0.93744 0.01048
0.7103000 1.03250 0.01169
0.7107000 0.98852 0.01095
0.7111000 0.97278 0.01040
0.7115000 0.97024 0.01081
0.7120000 1.03209 0.01167
0.7124000 1.01666 0.01145
0.7128000 0.97715 0.01030
0.7132000 0.98680 0.01070
0.7136000 0.98893 0.01102
0.7140000 1.00477 0.01109
0.7144000 0.94475 0.01083
0.7148000 0.95521 0.00996
0.7152000 0.97654 0.00995
0.7157000 0.97217 0.01101
0.7161000 0.95359 0.01157
0.7165000 0.95216 0.00986
0.7169000 0.95480 0.01064
0.7173000 0.98680 0.01219
0.7177000 0.98131 0.01121
0.7181000 0.96882 0.01148
0.7185000 0.95653 0.01135
0.7189000 1.00020 0.01206
0.7194000 0.96831 0.01157
0.7198000 0.95206 0.01037
0.7202000 0.96455 0.01172
0.7206000 1.00823 0.01089
0.7210000 0.96019 0.01073
0.7214000 0.97207 0.01095
0.7218000 0.97430 0.01028
0.7222000 1.01178 0.01190
0.7226000 0.96242 0.01086
0.7230000 0.95836 0.01185
0.7235000 1.00518 0.01394
0.7239000 0.97999 0.01433
0.7243000 0.98212 0.01499
0.7247000 0.95511 0.01290
0.7251000 0.99584 0.01317
0.7255000 1.00691 0.01162
0.7259000 1.00762 0.01119
0.7263000 0.99137 0.01143
0.7267000 0.96750 0.01128
0.7272000 1.01432 0.01451
0.7276000 0.99512 0.01431
0.7280000 0.96374 0.01387
0.7284000 0.97847 0.01313
0.7288000 0.99218 0.01294
0.7292000 0.97938 0.01224
0.7296000 0.96730 0.01228
0.7300000 0.96547 0.01306
0.7304000 0.96313 0.01163
0.7309000 0.94922 0.01262
0.7313000 0.93977 0.01428
0.7317000 0.97887 0.01425
0.7321000 0.95633 0.01303
0.7325000 0.98649 0.01357
0.7329000 0.97441 0.01361
0.7333000 0.94891 0.01400
0.7337000 0.93855 0.01447
0.7341000 0.93195 0.01429
0.7346000 0.95734 0.01179
0.7350000 0.94739 0.01236
0.7354000 0.96486 0.01199
0.7358000 0.95501 0.01419
0.7362000 0.96709 0.01431
0.7366000 0.95958 0.01411
0.7370000 0.98202 0.01285
0.7374000 0.98365 0.01272
0.7378000 0.95206 0.01119
0.7383000 0.97694 0.01239
0.7387000 0.94952 0.01197
0.7391000 0.93622 0.01412
0.7395000 0.93835 0.01430
0.7399000 0.97634 0.01246
0.7403000 0.97512 0.01344
0.7407000 0.93794 0.01185
0.7411000 0.96892 0.01183
0.7416000 1.00112 0.01242
0.7420000 0.96912 0.01261
0.7424000 0.95328 0.01162
0.7428000 0.94637 0.01324
0.7432000 0.94820 0.01331
0.7436000 0.93175 0.01285
0.7440000 0.99929 0.01391
0.7444000 0.96242 0.01124
0.7448000 0.96821 0.01255
0.7453000 0.95480 0.01204
0.7457000 0.97451 0.01254
0.7461000 0.95369 0.01361
0.7465000 0.96638 0.01242
0.7469000 0.99594 0.01328
0.7473000 0.99167 0.01395
0.7477000 0.95125 0.01286
0.7481000 0.98030 0.01444
0.7485000 0.96679 0.01356
0.7490000 0.97095 0.01307
0.7494000 0.93175 0.01307
0.7498000 0.92647 0.01260
0.7502000 0.95816 0.01182
0.7506000 0.94089 0.01074
0.7510000 0.94323 0.01187
0.7514000 0.94109 0.01356
0.7518000 0.98588 0.01434
0.7522000 0.96608 0.01307
0.7527000 0.90057 0.01422
0.7531000 0.93632 0.01221
0.7535000 0.94373 0.01285
0.7539000 0.90666 0.01267
0.7543000 0.96628 0.01304
0.7547000 0.94251 0.01218
0.7551000 1.00691 0.01284
0.7555000 0.94769 0.01224
0.7560000 0.94353 0.01276
0.7564000 0.95704 0.01358
0.7568000 0.93530 0.01494
0.7572000 0.95653 0.01376
0.7576000 0.95876 0.01226
0.7580000 0.98751 0.01276
0.7584000 0.95216 0.01337
0.7588000 0.91885 0.01634
0.7592000 0.89112 0.02211
0.7597000 0.94617 0.02132
0.7601000 0.93297 0.02053
0.7605000 1.00477 0.01974
0.7609000 1.01310 0.01895
0.7613000 0.94130 0.01816
0.7617000 0.91956 0.01903
0.7621000 0.92728 0.01898
0.7625000 0.96059 0.02596
0.7629000 0.93601 0.02144
0.7634000 0.95582 0.02064
0.7638000 0.90392 0.01899
0.7642000 0.93642 0.01946
0.7646000 0.97095 0.01644
0.7650000 0.96273 0.01693
0.7654000 1.01320 0.01756
0.7658000 0.97857 0.01495
0.7662000 0.97766 0.01402
0.7667000 0.97471 0.01582
0.7671000 0.94130 0.01393
0.7675000 0.94800 0.01335
0.7679000 0.94709 0.01279
0.7683000 0.98537 0.01496
0.7687000 0.92545 0.01424
0.7691000 0.91113 0.01624
0.7695000 0.89620 0.01450
0.7700000 0.87061 0.01429
0.7704000 0.94495 0.01537
0.7708000 0.96984 0.01663
0.7712000 0.96516 0.01976
0.7716000 0.92525 0.01816
0.7720000 0.97755 0.01718
0.7724000 1.01259 0.01542
0.7728000 0.99269 0.01494
0.7732000 0.93175 0.01427
0.7737000 0.91083 0.01317
0.7741000 0.92484 0.01577
0.7745000 0.96689 0.01749
0.7749000 0.95054 0.01829
0.7753000 0.96374 0.01833
0.7757000 0.97816 0.01690
0.7761000 0.94678 0.01582
0.7765000 0.96252 0.01446
0.7770000 0.97806 0.01521
0.7774000 0.95003 0.01851
0.7778000 0.92454 0.01582
0.7782000 0.93876 0.01554
0.7786000 0.94780 0.01357
0.7790000 0.94028 0.01679
0.7794000 0.90829 0.01514
0.7798000 0.96384 0.01582
0.7802000 0.98131 0.01446
0.7807000 0.96669 0.01619
0.7811000 0.99380 0.01599
0.7815000 0.95897 0.02001
0.7819000 0.93733 0.01830
0.7823000 0.91235 0.01614
0.7827000 0.94881 0.01522
0.7831000 0.95836 0.01465
0.7835000 1.01209 0.01617
0.7840000 0.96394 0.01622
0.7844000 0.99208 0.01708
0.7848000 0.96719 0.01850
0.7852000 0.94536 0.01918
0.7856000 0.92373 0.02168
0.7860000 0.95369 0.01956
0.7864000 0.95176 0.01858
0.7868000 0.96770 0.01877
0.7873000 0.96080 0.01796
0.7877000 0.96212 0.01557
0.7881000 0.94983 0.01800
0.7885000 0.94526 0.01835
0.7889000 0.97349 0.01812
0.7893000 0.91296 0.01624
0.7897000 0.93398 0.01511
0.7901000 0.93276 0.01507
0.7906000 0.93155 0.01795
0.7910000 0.96191 0.02372
0.7914000 0.93317 0.02380
0.7918000 0.90615 0.01887
0.7922000 0.96283 0.02001
0.7926000 0.96567 0.01857
0.7930000 0.99695 0.01685
0.7934000 0.95145 0.01730
0.7939000 0.97430 0.01615
0.7943000 0.93144 0.01857
0.7947000 0.94048 0.01865
0.7951000 0.95836 0.01647
0.7955000 0.93601 0.01707
0.7959000 0.90971 0.01893
0.7963000 0.90768 0.01920
0.7967000 0.92921 0.01960
0.7972000 0.94587 0.01578
0.7976000 0.97166 0.01950
0.7980000 0.89630 0.01757
0.7984000 0.90585 0.01842
0.7988000 0.93754 0.01950
0.7992000 0.91651 0.02187
0.7996000 0.97278 0.02099
0.8000000 0.98466 0.01696
0.8005000 0.92200 0.01534
0.8009000 0.89671 0.01780
0.8013000 0.96141 0.01844
0.8017000 0.95826 0.01883
0.8021000 0.93916 0.01954
0.8025000 0.93632 0.01940
0.8029000 0.98395 0.01955
0.8033000 0.96953 0.01870
0.8038000 0.95582 0.01596
0.8042000 1.01666 0.01805
0.8046000 0.94130 0.01741
0.8050000 0.93104 0.01716
0.8054000 0.93358 0.01780
0.8058000 0.99269 0.01933
0.8062000 0.97705 0.02108
0.8066000 0.96161 0.01704
0.8071000 0.92048 0.01636
0.8075000 0.95978 0.01849
0.8079000 0.94099 0.01591
0.8083000 0.97187 0.01803
0.8087000 0.96161 0.01667
0.8091000 0.92982 0.01660
0.8095000 0.96973 0.01840
0.8099000 0.98771 0.01683
0.8104000 0.96262 0.01664
0.8108000 0.93581 0.01822
0.8112000 0.92271 0.01764
0.8116000 0.94059 0.01526
0.8120000 0.90707 0.01612
0.8124000 0.94028 0.01800
0.8128000 0.94485 0.01843
0.8132000 1.00538 0.01969
0.8137000 0.94678 0.01809
0.8141000 0.95653 0.01804
0.8145000 0.96506 0.02016
0.8149000 0.95247 0.01666
0.8153000 0.96425 0.01570
0.8157000 0.99086 0.01911
0.8161000 0.90859 0.01878
0.8165000 0.94130 0.01693
0.8170000 0.92667 0.01810
0.8174000 0.86898 0.01786
0.8178000 0.95064 0.02022
0.8182000 0.96313 0.01945
0.8186000 0.93805 0.01866
0.8190000 0.93094 0.01954
0.8194000 0.90920 0.01939
0.8198000 0.96303 0.01949
0.8203000 0.95816 0.01812
0.8207000 0.96080 0.01814
0.8211000 0.95531 0.01759
0.8215000 0.99452 0.01851
0.8219000 0.93510 0.01573
0.8223000 0.91794 0.01791
0.8227000 0.94262 0.01799
0.8232000 0.94617 0.01725
0.8236000 0.91255 0.01719
0.8240000 0.93368 0.01860
0.8244000 0.94485 0.01753
0.8248000 1.00843 0.01782
0.8252000 1.00315 0.01933
0.8256000 0.97502 0.02074
0.8260000 0.92901 0.01726
0.8265000 0.93855 0.01784
0.8269000 0.92626 0.01639
0.8273000 0.94180 0.02088
0.8277000 0.95480 0.02061
0.8281000 0.93866 0.02332
0.8285000 0.99949 0.02583
0.8289000 1.02407 0.02645
0.8293000 0.94983 0.02432
0.8298000 0.96862 0.02693
0.8302000 0.90138 0.02119
0.8306000 0.94455 0.02160
0.8310000 1.01747 0.02280
0.8314000 0.95623 0.01793
0.8318000 0.96354 0.02097
0.8322000 0.92982 0.01969
0.8327000 0.94912 0.01960
0.8331000 0.94617 0.02021
0.8335000 0.90412 0.02132
0.8339000 0.91540 0.02822
0.8343000 0.89062 0.03248
0.8347000 0.97471 0.02937
0.8351000 0.96191 0.02701
0.8355000 0.95348 0.02391
0.8360000 0.92698 0.02307
0.8364000 0.92373 0.02252
0.8368000 0.92870 0.02082
0.8372000 0.95765 0.01938
0.8376000 1.00609 0.02085
0.8380000 0.97177 0.02082
0.8384000 0.93642 0.02241
0.8388000 0.95592 0.02335
0.8393000 0.92708 0.02369
0.8397000 0.95115 0.02850
0.8401000 0.92830 0.02710
0.8405000 0.94617 0.02422
0.8409000 0.92616 0.01952
0.8413000 0.92850 0.02119
0.8417000 0.96100 0.02344
0.8422000 0.96841 0.02452
0.8426000 0.90544 0.02618
0.8430000 0.96862 0.03122
0.8434000 0.93632 0.02701
0.8438000 0.89844 0.02022
0.8442000 0.89102 0.02072
0.8446000 0.92870 0.02256
0.8450000 0.95551 0.02294
0.8455000 0.95653 0.02332
0.8459000 0.96659 0.02457
0.8463000 0.93703 0.02684
0.8467000 0.97187 0.02873
0.8471000 0.91144 0.02488
0.8475000 0.92169 0.01982
0.8479000 0.91844 0.01924
0.8484000 0.91844 0.02013
0.8488000 0.93459 0.02174
0.8492000 0.93510 0.02157
0.8496000 0.99299 0.02618
0.8500000 0.92626 0.02624
0.8504000 0.92901 0.02377
0.8508000 0.95937 0.02290
0.8512000 0.96527 0.02177
0.8517000 0.97136 0.02209
0.8521000 0.94597 0.01970
0.8525000 0.93652 0.02158
0.8529000 0.96780 0.02109
0.8533000 0.87497 0.01960
0.8537000 0.91286 0.02473
0.8541000 1.03524 0.02585
0.8546000 0.98050 0.02628
0.8550000 0.93094 0.02390
0.8554000 0.90646 0.02105
0.8558000 0.94140 0.02104
0.8562000 0.89762 0.01908
0.8566000 0.90544 0.02117
0.8570000 0.90717 0.02055
0.8575000 1.00904 0.02002
0.8579000 0.94780 0.02044
0.8583000 0.89905 0.01975
0.8587000 0.90930 0.01967
0.8591000 1.02011 0.02439
0.8595000 0.96151 0.02181
0.8599000 0.95125 0.02246
0.8603000 0.93977 0.01963
0.8608000 0.92830 0.02120
0.8612000 0.95044 0.02362
0.8616000 0.93530 0.02234
0.8620000 0.93500 0.02406
0.8624000 0.96080 0.02580
0.8628000 0.93398 0.02645
0.8632000 0.92687 0.02791
0.8637000 0.93287 0.02532
0.8641000 0.95887 0.02701
0.8645000 0.91834 0.02221
0.8649000 0.92809 0.02685
0.8653000 0.87548 0.02937
0.8657000 0.88777 0.02800
0.8661000 0.96100 0.03273
0.8666000 1.00355 0.03116
0.8670000 0.91255 0.02519
0.8674000 0.89122 0.02798
0.8678000 0.88737 0.02289
0.8682000 0.89935 0.02177
0.8686000 0.96049 0.02478
0.8690000 0.98873 0.02175
0.8695000 0.99573 0.02125
0.8699000 1.03301 0.02192
0.8703000 0.89417 0.02146
0.8707000 0.85933 0.02088
0.8711000 0.93693 0.02278
0.8715000 0.93855 0.02313
0.8719000 0.92860 0.02299
0.8723000 0.95887 0.02047
0.8728000 0.92931 0.02018
0.8732000 0.96110 0.02104
0.8736000 0.94424 0.02043
0.8740000 0.91783 0.02184
0.8744000 0.88625 0.02139
0.8748000 0.90534 0.02196
0.8752000 0.94150 0.02146
0.8757000 0.96892 0.02517
0.8761000 0.96191 0.02916
0.8765000 0.90443 0.03183
0.8769000 0.90270 0.03028
0.8773000 0.95937 0.02940
0.8777000 0.91844 0.02831
0.8781000 0.97603 0.02999
0.8786000 0.98598 0.02822
0.8790000 0.98609 0.02356
0.8794000 0.95998 0.02319
0.8798000 0.88838 0.02120
0.8802000 0.91824 0.02188
0.8806000 0.95521 0.02242
0.8810000 0.98670 0.02436
0.8815000 0.89315 0.02275
0.8819000 0.92657 0.02227
0.8823000 0.93723 0.02918
0.8827000 0.89539 0.02968
0.8831000 0.90240 0.03019
0.8835000 0.95155 0.03069
0.8839000 0.93906 0.03119
0.8844000 0.93561 0.02732
0.8848000 0.90869 0.02442
0.8852000 0.89610 0.02391
0.8856000 0.88076 0.02269
0.8860000 0.92373 0.02605
0.8864000 0.91601 0.02585
0.8868000 0.93469 0.02659
0.8873000 0.93673 0.02621
0.8877000 0.88696 0.02374
0.8881000 0.87365 0.02231
0.8885000 0.91469 0.03257
0.8889000 0.88533 0.03200
0.8893000 0.95328 0.03213
0.8897000 0.91885 0.02231
0.8902000 0.91499 0.02450
0.8906000 0.91408 0.02824
0.8910000 0.84481 0.02638
0.8914000 0.86919 0.02941
0.8918000 0.93469 0.03499
0.8922000 0.95927 0.03525
0.8926000 0.89610 0.03085
0.8931000 0.90869 0.02635
0.8935000 0.95460 0.02465
0.8939000 0.94983 0.02450
0.8943000 0.90890 0.02738
0.8947000 0.89072 0.02879
0.8951000 0.95856 0.02883
0.8955000 0.91530 0.03198
0.8960000 0.84085 0.03346
0.8964000 0.93124 0.03329
0.8968000 0.91194 0.02745
0.8972000 0.95755 0.02635
0.8976000 0.96415 0.02424
0.8980000 0.94871 0.02497
0.8984000 0.97694 0.02661
0.8989000 0.96313 0.02931
0.8993000 0.95186 0.03027
0.8997000 0.93601 0.02507
0.9001000 0.91215 0.03487
0.9005000 0.85923 0.02883
0.9009000 0.92962 0.02966
0.9013000 0.92484 0.02704
0.9018000 0.90930 0.02455
0.9022000 0.91133 0.02559
0.9026000 0.94505 0.02670
0.9030000 0.91316 0.02437
0.9034000 0.97441 0.02563
0.9038000 0.98253 0.02465
0.9042000 0.93500 0.02748
0.9047000 0.89559 0.02833
0.9051000 0.90676 0.02959
0.9055000 0.87670 0.02602
0.9059000 0.83526 0.02510
0.9063000 0.93023 0.02471
0.9067000 0.97623 0.02338
0.9071000 0.84715 0.02600
0.9076000 0.84004 0.02535
0.9080000 0.86979 0.02547
0.9084000 0.84014 0.02838
0.9088000 0.88808 0.02517
0.9092000 0.94495 0.02585
0.9096000 0.94668 0.02990
0.9100000 0.94841 0.02739
0.9105000 0.92301 0.02688
0.9109000 0.90250 0.02699
0.9113000 0.95775 0.02656
0.9117000 0.90321 0.02598
0.9121000 0.92941 0.02401
0.9125000 0.93276 0.02475
0.9130000 0.88869 0.02265
0.9134000 0.85923 0.02328
0.9138000 0.90676 0.02680
0.9142000 0.88452 0.02575
0.9146000 0.91946 0.02772
0.9150000 0.87812 0.02389
0.9154000 0.90656 0.02693
0.9159000 0.90280 0.02516
0.9163000 0.90829 0.02796
0.9167000 0.90423 0.02465
0.9171000 0.89285 0.02576
0.9175000 0.90412 0.02640
0.9179000 0.97258 0.02985
0.9183000 0.87508 0.02357
0.9188000 0.93408 0.02744
0.9192000 0.89600 0.02599
0.9196000 0.90311 0.02583
0.9200000 0.90605 0.02782
0.9204000 0.91326 0.02720
0.9208000 0.96344 0.02570
0.9212000 0.91032 0.02599
0.9217000 0.92464 0.02973
0.9221000 0.96049 0.03004
0.9225000 0.93307 0.02793
0.9229000 0.93185 0.02953
0.9233000 0.95247 0.03024
0.9237000 0.93419 0.02584
0.9242000 0.98812 0.02927
0.9246000 0.90473 0.02707
0.9250000 0.90047 0.02901
0.9254000 0.89234 0.03010
0.9258000 0.87213 0.02993
0.9262000 0.84613 0.03354
0.9266000 0.86817 0.03297
0.9271000 0.90504 0.02954
0.9275000 0.88625 0.02630
0.9279000 0.90392 0.02727
0.9283000 0.90524 0.02823
0.9287000 0.89783 0.02908
0.9291000 0.98345 0.03418
0.9295000 0.94384 0.02951
0.9300000 0.98365 0.03675
0.9304000 0.98243 0.04054
0.9308000 0.89417 0.04462
0.9312000 0.88523 0.04444
0.9316000 0.86776 0.04425
0.9320000 0.83577 0.04406
0.9325000 0.83211 0.04388
0.9329000 0.84156 0.04369
0.9333000 0.88168 0.04351
0.9337000 0.80957 0.04332
0.9341000 0.79515 0.03963
0.9345000 0.92200 0.04597
0.9349000 1.00609 0.04608
0.9354000 0.88371 0.04303
0.9358000 0.90006 0.04558
0.9362000 0.94434 0.04430
0.9366000 0.91194 0.04212
0.9370000 0.81292 0.04850
0.9374000 0.86878 0.04938
0.9378000 0.88818 0.05027
0.9383000 0.93469 0.05115
0.9387000 0.93490 0.05204
0.9391000 0.99106 0.04480
0.9395000 0.91855 0.04081
0.9399000 0.90189 0.04224
0.9403000 0.97552 0.04382
0.9408000 0.88716 0.04872
0.9412000 0.91479 0.04426
0.9416000 0.93693 0.04764
0.9420000 0.81525 0.04604
0.9424000 0.84461 0.05351
0.9428000 0.87396 0.04710
0.9432000 0.97634 0.05292
0.9437000 0.91509 0.05411
0.9441000 0.93561 0.05278
0.9445000 0.97806 0.05144
0.9449000 0.90057 0.05011
0.9453000 0.82785 0.04878
0.9457000 0.94262 0.04581
0.9462000 1.04449 0.06254
0.9466000 0.99766 0.06328
0.9470000 0.95145 0.04822
0.9474000 0.96689 0.04906
0.9478000 0.97715 0.06746
0.9482000 0.98974 0.07027
0.9486000 0.97502 0.05696
0.9491000 0.95054 0.04365
0.9495000 0.95155 0.03034
0.9499000 0.92891 0.01702
