Asteroid designations ( Number, Name, Temporary designation): 1687, Glarona,  1965 SC, J65S00C, 1909 UA, J09U00A, 1915 XC, J15X00C, 1926 UA, J26U00A, 1931 RB1, J31R01B, 1942 PD, J42P00D, 1945 EA, J45E00A, 1948 QN, J48Q00N, 1948 RD1, J48R01D, 1954 TB, J54T00B, 1954 UB2, J54U02B, 1959 PG, J59P00G, 1960 XD, J60X00D, 1965 UX, J65U00X
Observation was done on (UT) (format YYYY-MM-DD-hh): 2012 - 02 - 19 - 03:00
Observation was made by : Fornasier Sonia E-mail; sonia.fornasier@obspm.fr
At observatory with UAI code: 950
Obsv. comments: uploaded by Simon Anghel
The spectrum was published in the article: http://adsabs.harvard.edu/abs/2016Icar..269....1F
The normalization of this spectrum was made for the wavelength: 0.550 microns.
Original name of the file was: 1687_Glarona.csv
Wavelength[um]	Reflectance	sigma(optional)
0.4000000 0.77273
0.4050000 0.84364
0.4100000 0.84364
0.4150000 0.88545
0.4200000 0.87636
0.4250000 0.88364
0.4300000 0.90545
0.4350000 0.88545
0.4400000 0.93091
0.4450000 0.96545
0.4500000 0.95636
0.4550000 0.97636
0.4600000 0.97091
0.4650000 0.99273
0.4700000 0.97091
0.4750000 0.97818
0.4800000 0.99091
0.4850000 1.00727
0.4900000 1.00727
0.4950000 0.99636
0.5000000 1.02000
0.5050000 0.98182
0.5100000 0.99273
0.5150000 0.99818
0.5200000 1.01455
0.5250000 1.00182
0.5300000 0.99091
0.5350000 1.00727
0.5400000 0.99818
0.5450000 0.99273
0.5500000 1.00000
0.5550000 1.02182
0.5600000 1.00909
0.5650000 0.99091
0.5700000 0.98364
0.5750000 0.98000
0.5800000 0.97818
0.5850000 0.98000
0.5900000 0.97636
0.5950000 0.99273
0.6000000 0.97818
0.6050000 0.96909
0.6100000 0.96364
0.6150000 0.97455
0.6200000 0.98545
0.6250000 0.96727
0.6300000 0.94909
0.6350000 0.94909
0.6400000 0.98364
0.6450000 0.95636
0.6500000 0.96000
0.6550000 0.94000
0.6600000 0.95636
0.6650000 0.95818
0.6700000 0.97091
0.6750000 0.93818
0.6800000 0.94182
0.6850000 0.93818
0.6900000 0.91636
0.6950000 0.94545
0.7000000 0.94545
0.7050000 0.94182
0.7100000 0.94545
0.7150000 0.94545
0.7200000 0.96545
0.7250000 0.94909
0.7300000 0.94182
0.7350000 0.93818
0.7400000 0.94727
0.7450000 0.93273
0.7500000 0.93091
0.7550000 0.94909
0.7600000 0.89818
0.7650000 0.87636
0.7700000 0.92909
0.7750000 0.94364
0.7800000 0.91273
0.7850000 0.92727
0.7900000 0.95091
0.7950000 0.94000
0.8000000 0.92727
0.8050000 0.91091
0.8100000 0.89091
0.8150000 0.97818
0.8200000 0.95818
0.8250000 0.99455
0.8300000 0.94000
0.8350000 0.93636
0.8400000 0.92364
0.8450000 0.92727
0.8500000 0.96909
0.8550000 0.88182
0.8600000 0.84545
0.8650000 0.91273
0.8700000 0.88545
0.8750000 0.91091
0.8800000 0.96000
0.8850000 0.96909
0.8900000 0.90182
0.8950000 0.86909
0.9000000 0.90909
0.9050000 0.93636
0.9100000 0.90000
0.9150000 0.82000
0.9200000 0.82182
0.9250000 0.89636
0.9300000 0.93636
0.9350000 0.87091
0.9400000 0.86000
0.9450000 0.90182
0.9500000 0.94909
0.9550000 0.90727
0.9600000 0.90545
0.9650000 0.90545
0.9700000 0.90182
0.9750000 0.87273
0.9800000 0.89273
0.9850000 0.92000
0.9900000 0.91091
0.9950000 0.87818
1.0000000 0.90182
1.0050000 0.94727
1.0100000 0.90909
1.0150000 0.88909
1.0200000 0.88727
1.0250000 0.88545
1.0300000 0.94364
1.0350000 0.92182
1.0400000 0.92000
1.0450000 0.91818
1.0500000 0.90727
1.0550000 0.90182
1.0600000 0.92000
1.0650000 0.93818
1.0700000 0.93455
1.0750000 0.93455
1.0800000 0.93091
1.0850000 0.93455
1.0900000 0.91455
1.0950000 0.87273
1.1000000 0.88545
1.1050000 0.99091
1.1100000 0.99455
1.1150000 0.95636
1.1200000 0.93636
1.1250000 0.97818
1.1300000 0.95455
1.1350000 0.92727
1.1400000 0.93636
1.1450000 0.92000
1.1500000 0.92909
1.1550000 0.95273
1.1600000 0.97636
1.1650000 0.97455
1.1700000 0.94909
1.1750000 0.93273
1.1800000 0.94182
1.1850000 0.94909
1.1900000 0.95455
1.1950000 0.97818
1.2000000 1.01818
1.2050000 1.00182
1.2100000 0.93818
1.2150000 0.93636
1.2200000 0.91636
1.2250000 0.89636
1.2300000 0.95273
1.2350000 1.00000
1.2400000 1.02727
1.2450000 1.02545
1.2500000 0.99091
1.2550000 0.99455
1.2600000 0.98545
1.2650000 0.97818
1.2700000 0.97818
1.2750000 0.97818
1.2800000 0.98000
1.2850000 1.00909
1.2900000 1.03818
1.2950000 1.03818
1.3000000 1.01636
1.3050000 0.99273
1.3100000 0.97636
1.3150000 0.97273
1.3200000 0.97636
1.3250000 0.98909
1.3300000 0.99636
1.3350000 1.03455
1.3400000 1.08545
1.3450000 1.12182
1.3500000 1.14182
1.3550000 1.13273
1.3600000 1.12364
1.3650000 1.10909
1.3700000 1.11273
1.3750000 1.16000
1.3800000 1.17636
1.3850000 1.18182
1.3900000 1.19091
1.3950000 1.20000
1.4000000 1.16182
1.4050000 1.12727
1.4100000 1.12182
1.4150000 1.13273
1.4200000 1.14182
1.4250000 1.12182
1.4300000 1.08545
1.4350000 1.08182
1.4400000 1.09091
1.4450000 1.11818
1.4500000 1.14182
1.4550000 1.16545
1.4600000 1.17273
1.4650000 1.15636
1.4700000 1.13091
1.4750000 1.07818
1.4800000 1.04727
1.4850000 1.08545
1.4900000 1.12000
1.4950000 1.15091
1.5000000 1.15455
1.5050000 1.15636
1.5100000 1.15091
1.5150000 1.11455
1.5200000 1.09455
1.5250000 1.10727
1.5300000 1.14000
1.5350000 1.17091
1.5400000 1.19455
1.5450000 1.21818
1.5500000 1.23636
1.5550000 1.24182
1.5600000 1.24000
1.5650000 1.21636
1.5700000 1.20364
1.5750000 1.20182
1.5800000 1.19455
1.5850000 1.18364
1.5900000 1.17818
1.5950000 1.18182
1.6000000 1.18364
1.6050000 1.18545
1.6100000 1.19455
1.6150000 1.19818
1.6200000 1.20182
1.6250000 1.20545
1.6300000 1.19091
1.6350000 1.14000
1.6400000 1.11636
1.6450000 1.14364
1.6500000 1.19636
1.6550000 1.26545
1.6600000 1.31455
1.6650000 1.26909
1.6700000 1.22545
1.6750000 1.23818
1.6800000 1.24909
1.6850000 1.24182
1.6900000 1.23273
1.6950000 1.21091
1.7000000 1.19636
1.7050000 1.21636
1.7100000 1.24000
1.7150000 1.23091
1.7200000 1.22727
1.7250000 1.19273
1.7300000 1.16727
1.7350000 1.15636
1.7400000 1.14364
1.7450000 1.19818
1.7500000 1.26909
1.7550000 1.31091
1.7600000 1.30364
1.7650000 1.28000
1.7700000 1.25636
1.7750000 1.23455
1.7800000 1.22364
1.7850000 1.23818
1.7900000 1.26182
1.7950000 1.27273
1.8000000 1.25091
1.8050000 1.25636
1.8100000 1.27818
1.8150000 1.30545
1.8200000 1.32727
1.8250000 1.35091
1.8300000 1.38909
1.8350000 1.42727
1.8400000 1.45091
1.8450000 1.47636
1.8500000 1.45636
1.8550000 1.43273
1.8600000 1.37091
1.8650000 1.30545
1.8700000 1.33818
1.8750000 1.38182
1.8800000 1.38909
1.8850000 1.39273
1.8900000 1.38727
1.8950000 1.36727
1.9000000 1.37818
1.9050000 1.39273
1.9100000 1.35273
1.9150000 1.28909
1.9200000 1.28909
1.9250000 1.34909
1.9300000 1.38545
1.9350000 1.43455
1.9400000 1.43091
1.9450000 1.40909
1.9500000 1.38545
1.9550000 1.36364
1.9600000 1.36000
1.9650000 1.36727
1.9700000 1.35455
1.9750000 1.30545
1.9800000 1.35091
1.9850000 1.46000
1.9900000 1.55091
1.9950000 1.55818
2.0000000 1.50545
2.0050000 1.42364
2.0100000 1.36727
2.0150000 1.36727
2.0200000 1.34545
2.0250000 1.29636
2.0300000 1.28000
2.0350000 1.30727
2.0400000 1.34364
2.0450000 1.35636
2.0500000 1.36182
2.0550000 1.36000
2.0600000 1.35818
2.0650000 1.35818
2.0700000 1.35091
2.0750000 1.32909
2.0800000 1.30182
2.0850000 1.28545
2.0900000 1.29636
2.0950000 1.34182
2.1000000 1.36545
2.1050000 1.35636
2.1100000 1.34182
2.1150000 1.30545
2.1200000 1.30727
2.1250000 1.35636
2.1300000 1.36909
2.1350000 1.32727
2.1400000 1.32364
2.1450000 1.35273
2.1500000 1.38364
2.1550000 1.36727
2.1600000 1.34364
2.1650000 1.32000
2.1700000 1.31091
2.1750000 1.32727
2.1800000 1.35636
2.1850000 1.38909
2.1900000 1.40909
2.1950000 1.40909
2.2000000 1.35273
2.2050000 1.30727
2.2100000 1.29818
2.2150000 1.32000
2.2200000 1.36364
2.2250000 1.41455
2.2300000 1.41636
2.2350000 1.42182
2.2400000 1.44000
2.2450000 1.46364
2.2500000 1.49091
2.2550000 1.47455
2.2600000 1.41455
2.2650000 1.38727
2.2700000 1.40727
2.2750000 1.41636
2.2800000 1.40000
2.2850000 1.36364
2.2900000 1.31818
2.2950000 1.27091
2.3000000 1.24545
2.3050000 1.26182
2.3100000 1.30182
2.3150000 1.35636
2.3200000 1.40182
2.3250000 1.42545
2.3300000 1.42727
2.3350000 1.34545
2.3400000 1.31636
2.3450000 1.34364
2.3500000 1.34364
