Asteroid designations ( Number, Name, Temporary designation): 846, Lipperta,  1916AT, 1916AT, 1912 AD, J12A00D, 1933 XF, J33X00F, 1943 QF, J43Q00F, 1949 UB1, J49U01B
Observation was done on (UT) (format YYYY-MM-DD-hh): 2012 - 02 - 20 - 03:00
Observation was made by : Fornasier Sonia E-mail; sonia.fornasier@obspm.fr
At observatory with UAI code: 950
Obsv. comments: uploaded by Simon Anghel
The spectrum was published in the article: http://adsabs.harvard.edu/abs/2016Icar..269....1F
The normalization of this spectrum was made for the wavelength: 0.550 microns.
Original name of the file was: 846_Lipperta.csv
Wavelength[um]	Reflectance	sigma(optional)
0.4500000 0.98303
0.4550000 0.98004
0.4600000 0.98603
0.4650000 1.00299
0.4700000 1.00798
0.4750000 0.99301
0.4800000 0.98503
0.4850000 0.98802
0.4900000 0.99401
0.4950000 0.98802
0.5000000 0.99301
0.5050000 0.99202
0.5100000 0.99301
0.5150000 0.99401
0.5200000 0.99301
0.5250000 0.99501
0.5300000 0.99002
0.5350000 0.98503
0.5400000 0.99401
0.5450000 0.98703
0.5500000 1.00000
0.5550000 0.99501
0.5600000 0.99501
0.5650000 0.99800
0.5700000 0.99401
0.5750000 0.98703
0.5800000 0.99002
0.5850000 0.98303
0.5900000 0.98703
0.5950000 0.98703
0.6000000 0.98703
0.6050000 0.98004
0.6100000 0.98703
0.6150000 0.98703
0.6200000 0.98204
0.6250000 0.99102
0.6300000 0.98603
0.6350000 0.99202
0.6400000 0.98703
0.6450000 0.98802
0.6500000 0.98403
0.6550000 0.98204
0.6600000 0.99301
0.6650000 0.99102
0.6700000 0.98603
0.6750000 0.98703
0.6800000 0.98703
0.6850000 0.98303
0.6900000 0.99900
0.6950000 0.99102
0.7000000 0.99601
0.7050000 0.99800
0.7100000 0.99501
0.7150000 0.99301
0.7200000 0.99800
0.7250000 0.99202
0.7300000 1.00200
0.7350000 0.99701
0.7400000 1.00200
0.7450000 0.99701
0.7500000 1.00100
0.7550000 0.99401
0.7600000 0.99102
0.7650000 1.01597
0.7700000 1.00200
0.7750000 1.00100
0.7800000 1.00000
0.7850000 0.99800
0.7900000 1.00299
0.7950000 0.99301
0.8000000 0.99401
0.8050000 0.99601
0.8100000 1.00499
0.8150000 0.99800
0.8200000 1.00100
0.8250000 1.00499
0.8300000 1.00100
0.8350000 1.00998
0.8400000 1.00100
0.8450000 1.00399
0.8500000 1.01297
0.8550000 1.01996
0.8600000 1.00699
0.8650000 1.00998
0.8700000 0.99900
0.8750000 1.00499
0.8800000 1.00200
0.8850000 1.00200
0.8900000 1.00499
0.8950000 1.00499
0.9000000 0.99900
0.9050000 1.00299
0.9100000 0.99202
0.9150000 0.99501
0.9200000 0.99301
0.9250000 1.00299
0.9300000 1.05788
0.9350000 1.03293
0.9400000 0.99501
0.9450000 0.99401
0.9500000 1.01497
0.9550000 1.02395
0.9600000 1.00299
0.9650000 0.99701
0.9700000 1.01497
0.9750000 1.01996
0.9800000 1.01297
0.9850000 0.99900
0.9900000 1.02695
0.9950000 1.03593
1.0000000 1.01896
1.0050000 1.02495
1.0100000 1.05289
1.0150000 1.02994
1.0200000 1.02794
1.0250000 1.01597
1.0300000 1.01996
1.0350000 1.02695
1.0400000 1.02595
1.0450000 1.01896
1.0500000 1.02794
1.0550000 1.01896
1.0600000 1.00499
1.0650000 1.01597
1.0700000 1.01996
1.0750000 1.03194
1.0800000 1.03393
1.0850000 1.04092
1.0900000 1.04790
1.0950000 1.04092
1.1000000 1.01597
1.1050000 1.00499
1.1100000 1.01697
1.1150000 1.03892
1.1200000 1.02395
1.1250000 1.02695
1.1300000 1.03393
1.1350000 1.04391
1.1400000 1.04990
1.1450000 1.04790
1.1500000 1.04890
1.1550000 1.02994
1.1600000 1.03593
1.1650000 1.04192
1.1700000 1.04591
1.1750000 1.03393
1.1800000 1.03693
1.1850000 1.04391
1.1900000 1.04591
1.1950000 1.03593
1.2000000 1.03693
1.2050000 1.04890
1.2100000 1.05289
1.2150000 1.05788
1.2200000 1.06387
1.2250000 1.05190
1.2300000 1.04491
1.2350000 1.04591
1.2400000 1.05090
1.2450000 1.05589
1.2500000 1.05589
1.2550000 1.06786
1.2600000 1.08583
1.2650000 1.07385
1.2700000 1.06287
1.2750000 1.05689
1.2800000 1.05489
1.2850000 1.05689
1.2900000 1.06287
1.2950000 1.06886
1.3000000 1.07485
1.3050000 1.08084
1.3100000 1.08583
1.3150000 1.07984
1.3200000 1.06786
1.3250000 1.05589
1.3300000 1.06188
1.3350000 1.07385
1.3400000 1.08483
1.3450000 1.08283
1.3500000 1.06088
1.3550000 1.06587
1.3600000 1.08782
1.3650000 1.10080
1.3700000 1.10579
1.3750000 1.11776
1.3800000 1.12974
1.3850000 1.11078
1.3900000 1.10778
1.3950000 1.11477
1.4000000 1.12475
1.4050000 1.12974
1.4100000 1.12475
1.4150000 1.11377
1.4200000 1.11477
1.4250000 1.11976
1.4300000 1.13174
1.4350000 1.14471
1.4400000 1.11477
1.4450000 1.09980
1.4500000 1.10279
1.4550000 1.11078
1.4600000 1.12275
1.4650000 1.13473
1.4700000 1.14671
1.4750000 1.15170
1.4800000 1.15170
1.4850000 1.15070
1.4900000 1.15070
1.4950000 1.15170
1.5000000 1.15269
1.5050000 1.15070
1.5100000 1.16168
1.5150000 1.16866
1.5200000 1.16567
1.5250000 1.15269
1.5300000 1.13772
1.5350000 1.13573
1.5400000 1.12974
1.5450000 1.12974
1.5500000 1.12675
1.5550000 1.14471
1.5600000 1.15669
1.5650000 1.16567
1.5700000 1.16667
1.5750000 1.16068
1.5800000 1.15768
1.5850000 1.15868
1.5900000 1.16367
1.5950000 1.17465
1.6000000 1.18762
1.6050000 1.17864
1.6100000 1.16667
1.6150000 1.16267
1.6200000 1.15569
1.6250000 1.18064
1.6300000 1.21457
1.6350000 1.22954
1.6400000 1.22555
1.6450000 1.20459
1.6500000 1.17365
1.6550000 1.17764
1.6600000 1.19062
1.6650000 1.19561
1.6700000 1.18463
1.6750000 1.17265
1.6800000 1.16667
1.6850000 1.16866
1.6900000 1.18164
1.6950000 1.18862
1.7000000 1.18862
1.7050000 1.18762
1.7100000 1.20060
1.7150000 1.20259
1.7200000 1.19661
1.7250000 1.19860
1.7300000 1.21058
1.7350000 1.21158
1.7400000 1.19860
1.7450000 1.18164
1.7500000 1.18164
1.7550000 1.18363
1.7600000 1.20160
1.7650000 1.22056
1.7700000 1.20160
1.7750000 1.19361
1.7800000 1.18962
1.7850000 1.18563
1.7900000 1.17665
1.7950000 1.16567
1.8000000 1.17265
1.8050000 1.18563
1.8100000 1.17565
1.8150000 1.15469
1.8200000 1.15369
1.8250000 1.16667
1.8300000 1.16367
1.8350000 1.15868
1.8400000 1.16267
1.8450000 1.16567
1.8500000 1.18363
1.8550000 1.20758
1.8600000 1.21756
1.8650000 1.21058
1.8700000 1.20659
1.8750000 1.20858
1.8800000 1.21058
1.8850000 1.21058
1.8900000 1.21058
1.8950000 1.20958
1.9000000 1.22056
1.9050000 1.24052
1.9100000 1.24750
1.9150000 1.24351
1.9200000 1.23253
1.9250000 1.22056
1.9300000 1.21357
1.9350000 1.21457
1.9400000 1.21856
1.9450000 1.22555
1.9500000 1.23653
1.9550000 1.23952
1.9600000 1.23952
1.9650000 1.24451
1.9700000 1.25449
1.9750000 1.25449
1.9800000 1.25449
1.9850000 1.25449
1.9900000 1.25449
1.9950000 1.25848
2.0000000 1.26846
2.0050000 1.28144
2.0100000 1.29341
2.0150000 1.28443
2.0200000 1.27146
2.0250000 1.27745
2.0300000 1.29341
2.0350000 1.27046
2.0400000 1.23852
2.0450000 1.23653
2.0500000 1.24850
2.0550000 1.26846
2.0600000 1.28044
2.0650000 1.28543
2.0700000 1.28343
2.0750000 1.29741
2.0800000 1.31737
2.0850000 1.30040
2.0900000 1.27146
2.0950000 1.26148
2.1000000 1.26048
2.1050000 1.26248
2.1100000 1.27545
2.1150000 1.27645
2.1200000 1.27545
2.1250000 1.27645
2.1300000 1.28044
2.1350000 1.29142
2.1400000 1.30040
2.1450000 1.30739
2.1500000 1.31337
2.1550000 1.31337
2.1600000 1.30539
2.1650000 1.29242
2.1700000 1.28144
2.1750000 1.27545
2.1800000 1.27246
2.1850000 1.29641
2.1900000 1.30539
2.1950000 1.29441
2.2000000 1.28244
2.2050000 1.28044
2.2100000 1.28244
2.2150000 1.28343
2.2200000 1.28343
2.2250000 1.28144
2.2300000 1.26946
2.2350000 1.24251
2.2400000 1.23353
2.2450000 1.24651
2.2500000 1.26148
2.2550000 1.27645
2.2600000 1.27146
2.2650000 1.25848
2.2700000 1.25449
2.2750000 1.25349
2.2800000 1.26347
2.2850000 1.27345
2.2900000 1.24551
2.2950000 1.23253
2.3000000 1.24551
2.3050000 1.26248
2.3100000 1.27645
2.3150000 1.28842
2.3200000 1.30140
2.3250000 1.29940
2.3300000 1.27745
2.3350000 1.28643
2.3400000 1.30639
2.3450000 1.30938
2.3500000 1.29741
2.3550000 1.27944
2.3600000 1.26447
2.3650000 1.26148
2.3700000 1.25349
2.3750000 1.24750
2.3800000 1.26946
2.3850000 1.29840
2.3900000 1.28543
