Asteroid designations ( Number, Name, Temporary designation): 5011, Ptah, 6743_P-L
Observation was done on (UT) (format YYYY-MM-DD-hh): 2000 - 01 - 01 - 00:00
Observation was made by : Davide Perna E-mail; davide.perna@obspm.fr
At observatory with UAI code: 950
Obsv. comments: Ambigous date
The spectrum was published in the article: http://www.oa-roma.inaf.it/planet/NEOSURFACE.html
The normalization of this spectrum was made for the wavelength: 0.550 microns.
Original name of the file was: 5011.txt
Wavelength[um]	Reflectance	sigma(optional)
0.4033 0.70522
0.4040 0.67988
0.4047 0.72995
0.4055 0.71218
0.4062 0.78322
0.4069 0.71218
0.4077 0.72946
0.4084 0.72051
0.4091 0.72609
0.4099 0.72057
0.4106 0.67269
0.4114 0.71268
0.4121 0.73651
0.4128 0.71270
0.4136 0.71053
0.4143 0.74415
0.4150 0.72483
0.4158 0.66771
0.4165 0.68536
0.4172 0.74563
0.4180 0.73590
0.4187 0.66423
0.4194 0.73749
0.4202 0.73632
0.4209 0.74013
0.4216 0.71322
0.4224 0.72628
0.4231 0.71445
0.4238 0.68244
0.4246 0.73119
0.4253 0.69525
0.4260 0.71118
0.4268 0.67233
0.4275 0.66359
0.4282 0.69760
0.4290 0.69876
0.4297 0.71549
0.4304 0.74944
0.4312 0.72932
0.4319 0.71711
0.4327 0.76845
0.4334 0.80267
0.4341 0.77346
0.4349 0.79691
0.4356 0.81461
0.4363 0.81447
0.4371 0.75979
0.4378 0.78839
0.4385 0.76188
0.4393 0.77097
0.4400 0.77277
0.4407 0.78193
0.4415 0.78440
0.4422 0.79141
0.4429 0.78369
0.4437 0.79007
0.4444 0.79032
0.4451 0.80737
0.4459 0.84298
0.4466 0.83789
0.4473 0.85902
0.4481 0.84649
0.4488 0.84962
0.4495 0.80299
0.4503 0.81662
0.4510 0.83191
0.4517 0.82182
0.4525 0.84078
0.4532 0.84721
0.4540 0.83984
0.4547 0.83284
0.4554 0.84757
0.4562 0.86426
0.4569 0.86810
0.4576 0.84984
0.4584 0.83618
0.4591 0.86035
0.4598 0.84090
0.4606 0.85237
0.4613 0.84490
0.4620 0.87453
0.4628 0.84248
0.4635 0.88266
0.4642 0.89626
0.4650 0.85347
0.4657 0.86454
0.4664 0.83897
0.4672 0.82963
0.4679 0.86947
0.4686 0.84996
0.4694 0.84177
0.4701 0.85587
0.4708 0.86431
0.4716 0.86566
0.4723 0.85835
0.4730 0.89594
0.4738 0.90311
0.4745 0.90024
0.4753 0.91137
0.4760 0.88704
0.4767 0.87303
0.4775 0.89014
0.4782 0.89655
0.4789 0.89439
0.4797 0.89594
0.4804 0.89439
0.4811 0.89230
0.4819 0.89230
0.4826 0.86806
0.4833 0.87336
0.4841 0.87174
0.4848 0.89230
0.4855 0.90224
0.4863 0.91607
0.4870 0.88385
0.4877 0.88246
0.4885 0.90988
0.4892 0.92911
0.4899 0.91704
0.4907 0.93217
0.4914 0.93378
0.4921 0.91435
0.4929 0.89244
0.4936 0.90412
0.4943 0.90644
0.4951 0.92856
0.4958 0.91123
0.4966 0.91850
0.4973 0.91301
0.4980 0.90993
0.4988 0.90979
0.4995 0.88863
0.5002 0.90966
0.5010 0.89853
0.5017 0.92315
0.5024 0.89374
0.5032 0.90169
0.5039 0.93632
0.5046 0.89456
0.5054 0.91100
0.5061 0.94752
0.5068 0.92931
0.5076 0.91352
0.5083 0.93242
0.5090 0.92008
0.5098 0.92660
0.5105 0.94461
0.5112 0.95360
0.5120 0.93584
0.5127 0.91780
0.5134 0.90388
0.5142 0.92061
0.5149 0.91929
0.5157 0.91978
0.5164 0.90994
0.5171 0.90420
0.5179 0.91249
0.5186 0.93385
0.5193 0.92061
0.5201 0.84856
0.5208 0.96879
0.5215 0.96364
0.5223 0.96228
0.5230 0.97422
0.5237 0.94068
0.5245 0.97667
0.5252 0.97348
0.5259 0.95727
0.5267 0.96898
0.5274 0.96810
0.5281 0.93490
0.5289 0.98164
0.5296 0.94677
0.5303 0.98776
0.5311 0.98142
0.5318 1.00233
0.5325 1.00247
0.5333 0.97068
0.5340 0.97703
0.5347 0.96671
0.5355 0.97650
0.5362 0.97621
0.5370 0.97494
0.5377 0.98817
0.5384 0.98829
0.5392 0.96132
0.5399 0.95886
0.5406 1.00231
0.5414 0.99790
0.5421 1.01685
0.5428 1.00957
0.5436 1.01726
0.5443 1.03301
0.5450 1.01651
0.5458 1.00172
0.5465 0.99974
0.5472 1.00617
0.5480 1.01734
0.5487 1.02685
0.5494 1.00447
0.5502 1.00000
0.5509 1.03614
0.5516 1.02784
0.5524 1.00524
0.5531 0.93264
0.5538 0.97193
0.5546 0.98143
0.5553 1.00071
0.5560 0.99119
0.5568 0.98181
0.5575 1.01289
0.5583 0.98531
0.5590 1.01176
0.5597 0.99639
0.5605 0.99389
0.5612 1.03234
0.5619 1.00537
0.5627 1.04741
0.5634 1.05124
0.5641 1.03191
0.5649 1.03198
0.5656 1.02877
0.5663 1.03594
0.5671 1.02141
0.5678 1.03900
0.5685 1.03191
0.5693 1.03198
0.5700 1.05614
0.5707 1.03454
0.5715 1.04613
0.5722 1.03542
0.5729 1.04022
0.5737 1.05466
0.5744 1.05419
0.5751 1.04205
0.5759 1.05457
0.5766 1.04873
0.5773 1.04621
0.5781 1.04030
0.5788 1.05428
0.5796 1.06082
0.5803 1.07312
0.5810 1.06055
0.5818 1.07070
0.5825 1.05779
0.5832 1.06285
0.5840 1.03683
0.5847 1.03530
0.5854 1.05386
0.5862 1.04944
0.5869 1.04441
0.5876 1.04730
0.5884 1.05059
0.5891 1.05813
0.5898 1.05790
0.5906 1.06252
0.5913 1.06893
0.5920 1.07529
0.5928 1.07366
0.5935 1.09490
0.5942 1.09670
0.5950 1.08831
0.5957 1.09708
0.5964 1.07696
0.5972 1.05104
0.5979 1.06824
0.5986 1.08819
0.5994 1.08238
0.6001 1.07530
0.6008 1.06978
0.6016 1.06154
0.6023 1.06645
0.6031 1.06277
0.6038 1.07542
0.6045 1.07742
0.6053 1.08091
0.6060 1.08321
0.6067 1.07523
0.6075 1.08491
0.6082 1.08779
0.6089 1.07791
0.6097 1.07962
0.6104 1.06910
0.6111 1.07256
0.6119 1.05401
0.6126 1.07967
0.6133 1.07566
0.6141 1.04715
0.6148 1.07011
0.6155 1.08430
0.6163 1.08410
0.6170 1.09411
0.6177 1.07427
0.6185 1.08888
0.6192 1.08976
0.6199 1.07660
0.6207 1.09367
0.6214 1.09316
0.6221 1.08898
0.6229 1.09560
0.6236 1.08393
0.6244 1.05435
0.6251 1.05947
0.6258 1.09618
0.6266 1.10181
0.6273 1.10496
0.6280 1.05202
0.6288 1.06753
0.6295 1.06463
0.6302 1.11116
0.6310 1.09655
0.6317 1.08582
0.6324 1.12811
0.6332 1.12143
0.6339 1.11971
0.6346 1.11650
0.6354 1.11004
0.6361 1.11538
0.6368 1.14516
0.6376 1.09859
0.6383 1.09366
0.6390 1.11822
0.6398 1.11645
0.6405 1.10026
0.6412 1.12525
0.6420 1.12369
0.6427 1.11662
0.6434 1.14496
0.6442 1.09664
0.6449 1.12387
0.6457 1.09963
0.6464 1.01941
0.6471 1.12356
0.6479 1.12936
0.6486 1.12896
0.6493 1.10242
0.6501 1.09399
0.6508 1.10408
0.6515 1.12947
0.6523 1.10313
0.6530 1.15312
0.6537 1.10796
0.6545 1.14470
0.6552 1.10908
0.6559 1.10022
0.6567 1.14533
0.6574 1.13999
0.6581 1.17216
0.6589 1.20587
0.6596 1.18096
0.6603 1.17285
0.6611 1.14925
0.6618 1.15479
0.6625 1.15317
0.6633 1.12512
0.6640 1.13117
0.6647 1.12279
0.6655 1.14958
0.6662 1.14477
0.6670 1.13555
0.6677 1.14490
0.6684 1.12995
0.6692 1.13251
0.6699 1.14159
0.6706 1.16532
0.6714 1.14382
0.6721 1.12098
0.6728 1.15001
0.6736 1.13157
0.6743 1.15457
0.6750 1.15186
0.6758 1.15824
0.6765 1.12438
0.6772 1.12696
0.6780 1.14905
0.6787 1.14137
0.6794 1.14395
0.6802 1.10862
0.6809 1.15389
0.6816 1.12187
0.6824 1.15414
0.6831 1.13435
0.6838 1.11211
0.6846 1.09667
0.6853 1.09372
0.6861 1.11241
0.6868 1.08490
0.6875 1.08953
0.6883 1.11124
0.6890 1.19258
0.6897 1.18047
0.6905 1.18463
0.6912 1.19818
0.6919 1.18091
0.6927 1.19036
0.6934 1.14707
0.6941 1.14289
0.6949 1.16616
0.6956 1.15431
0.6963 1.16481
0.6971 1.15264
0.6978 1.18130
0.6985 1.19101
0.6993 1.15732
0.7000 1.17499
0.7007 1.17916
0.7015 1.18851
0.7022 1.16338
0.7029 1.17027
0.7037 1.16820
0.7044 1.15869
0.7051 1.15873
0.7059 1.15805
0.7066 1.16433
0.7074 1.16391
0.7081 1.16723
0.7088 1.15902
0.7096 1.14135
0.7103 1.14539
0.7110 1.15923
0.7118 1.15605
0.7125 1.15633
0.7132 1.16478
0.7140 1.15757
0.7147 1.12308
0.7154 1.12882
0.7162 1.13537
0.7169 1.11905
0.7176 1.12164
0.7184 1.12235
0.7191 1.12020
0.7198 1.14585
0.7206 1.16163
0.7213 1.12921
0.7220 1.11331
0.7228 1.12685
0.7235 1.13646
0.7242 1.13580
0.7250 1.12872
0.7257 1.11873
0.7264 1.11390
0.7272 1.13376
0.7279 1.13298
0.7287 1.12210
0.7294 1.12834
0.7301 1.17229
0.7309 1.19558
0.7316 1.15363
0.7323 1.16226
0.7331 1.20573
0.7338 1.23873
0.7345 1.19817
0.7353 1.19303
0.7360 1.16628
0.7367 1.18103
0.7375 1.18062
0.7382 1.14253
0.7389 1.15457
0.7397 1.17140
0.7404 1.18452
0.7411 1.15767
0.7419 1.15105
0.7426 1.19047
0.7433 1.16859
0.7441 1.14617
0.7448 1.16715
0.7455 1.17833
0.7463 1.18582
0.7470 1.14009
0.7477 1.15205
0.7485 1.11904
0.7492 1.16271
0.7500 1.18020
0.7507 1.14140
0.7514 1.17970
0.7522 1.10848
0.7529 1.15347
0.7536 1.15445
0.7544 1.13961
0.7551 1.10939
0.7558 1.09862
0.7566 0.99681
0.7573 1.09862
0.7580 1.09862
0.7588 1.09862
0.7595 1.09862
0.7602 1.09862
0.7610 1.09862
0.7617 1.02327
0.7624 1.05919
0.7632 1.13811
0.7639 1.13159
0.7646 1.18186
0.7654 1.19720
0.7661 1.16465
0.7668 1.14062
0.7676 1.14298
0.7683 1.12551
0.7690 1.13701
0.7698 1.13269
0.7705 1.11129
0.7713 1.09844
0.7720 1.07821
0.7727 1.07176
0.7735 1.11706
0.7742 1.13838
0.7749 1.07700
0.7757 1.11092
0.7764 1.10666
0.7771 1.11423
0.7779 1.14757
0.7786 1.13489
0.7793 1.10666
0.7801 1.03363
0.7808 1.07753
0.7815 1.14593
0.7823 1.11092
0.7830 1.09379
0.7837 1.06375
0.7845 1.09111
0.7852 1.08894
0.7859 1.06521
0.7867 1.02857
0.7874 1.07883
0.7881 1.04330
0.7889 1.08724
0.7896 1.05272
0.7903 1.08336
0.7911 1.09106
0.7918 1.03409
0.7926 0.96632
0.7933 1.06682
0.7940 1.06169
0.7948 1.05179
0.7955 1.04515
0.7962 1.12003
0.7970 1.04868
0.7977 1.07586
0.7984 1.05697
0.7992 1.11575
0.7999 1.06650
0.8006 1.05363
0.8014 1.06094
0.8021 1.08106
0.8028 1.05710
0.8036 1.04101
0.8043 1.05515
0.8050 1.11623
0.8058 1.05490
0.8065 1.01343
0.8072 1.03551
0.8080 1.04684
0.8087 1.07109
0.8094 1.03351
0.8102 1.00187
0.8109 1.01830
0.8116 1.02121
0.8124 1.00667
0.8131 0.97072
0.8139 0.98344
0.8146 0.99348
0.8153 0.98666
0.8161 0.97184
0.8168 0.97831
0.8175 0.99390
0.8183 0.99618
0.8190 0.99023
0.8197 0.97975
0.8205 0.98675
0.8212 1.00422
0.8219 1.01020
0.8227 0.97954
0.8234 0.94702
0.8241 0.95534
0.8249 0.94150
0.8256 0.92654
0.8263 0.95878
0.8271 0.98077
0.8278 0.92643
0.8285 0.96999
0.8293 0.92300
0.8300 0.95567
0.8307 0.99348
0.8315 0.97185
0.8322 0.92796
0.8329 0.96342
0.8337 0.96724
0.8344 1.02451
0.8352 1.03864
0.8359 1.01330
0.8366 0.87469
0.8374 1.00107
0.8381 0.92942
0.8388 0.98879
0.8396 0.93353
0.8403 1.04480
0.8410 0.96383
0.8418 0.95285
0.8425 0.92535
0.8432 0.94398
0.8440 1.01723
0.8447 0.93389
0.8454 1.02401
0.8462 1.00884
0.8469 1.03590
0.8476 0.97069
0.8484 0.96280
0.8491 0.99283
0.8498 0.96272
0.8506 0.93847
0.8513 0.97895
0.8520 1.00594
0.8528 0.96441
0.8535 0.93621
0.8542 0.92788
0.8550 0.88651
0.8557 0.88319
0.8565 0.95111
0.8572 0.96556
0.8579 0.91964
0.8587 0.90972
0.8594 0.91720
0.8601 0.93009
0.8609 0.90551
0.8616 0.86610
0.8623 0.88581
0.8631 0.87011
0.8638 0.91246
0.8645 0.92456
0.8653 0.95413
0.8660 0.95210
0.8667 0.95624
0.8675 0.89558
0.8682 0.97741
0.8689 0.96494
0.8697 0.93229
0.8704 0.91542
0.8711 0.96573
0.8719 0.96039
0.8726 0.92670
0.8733 1.00325
0.8741 0.97677
0.8748 0.95812
0.8755 0.94220
0.8763 0.97070
0.8770 0.92937
0.8778 0.92122
0.8785 0.87550
0.8792 0.87102
0.8800 0.87550
0.8807 0.87102
0.8814 0.80721
0.8822 0.91467
0.8829 0.92122
0.8836 0.90523
0.8844 0.84009
0.8851 0.87102
0.8858 0.77428
0.8866 0.84468
0.8873 0.88520
0.8880 0.90564
0.8888 0.88919
0.8895 0.88919
0.8902 0.93968
0.8910 0.88520
0.8917 0.84468
0.8924 0.81930
0.8932 0.88919
0.8939 0.91600
0.8946 0.97659
0.8954 0.94066
0.8961 0.90811
0.8968 0.89150
0.8976 0.91644
0.8983 0.88919
0.8991 0.89150
0.8998 0.89786
0.9005 0.85552
0.9013 0.82390
0.9020 0.85552
0.9027 0.91335
0.9035 0.84188
0.9042 0.82097
0.9049 0.90168
0.9057 0.81234
0.9064 0.89786
0.9071 0.84998
0.9079 0.86899
0.9086 0.78870
0.9093 0.80803
0.9101 0.87288
0.9108 0.87601
0.9115 0.89654
0.9123 0.86910
0.9130 0.86397
0.9137 0.90649
0.9145 0.86521
0.9152 0.87522
0.9159 0.88047
0.9167 0.86521
0.9174 0.89063
0.9181 0.92419
0.9189 0.91917
0.9196 0.87586
0.9204 0.82493
0.9211 0.86196
0.9218 0.88750
0.9226 0.86042
0.9233 0.83327
0.9240 0.85563
0.9248 0.79018
0.9255 0.78792
0.9262 0.72781
0.9270 0.74826
0.9277 0.73941
0.9284 0.74287
0.9292 0.77081
0.9299 0.79018
0.9306 0.77217
0.9385 0.87256
0.9391 0.87917
0.9398 0.87307
0.9404 0.84078
0.9411 0.88449
0.9417 0.87256
0.9424 0.81237
0.9431 0.83306
0.9437 0.81798
0.9444 0.85368
0.9450 0.84402
0.9457 0.82415
0.9463 0.82415
0.9470 0.80190
0.9476 0.80450
0.9483 0.84402
0.9490 0.82415
0.9496 0.85390
0.9503 0.88335
0.9509 0.88595
0.9516 0.82415
0.9522 0.85390
0.9529 0.88337
0.9536 0.85148
0.9542 0.85148
0.9549 0.83187
0.9555 0.85148
0.9562 0.84468
0.9568 0.87882
0.9575 0.83187
0.9582 0.85078
0.9588 0.85078
0.9595 0.85078
0.9601 0.84468
0.9608 0.84468
0.9614 0.85383
0.9621 0.82024
0.9627 0.85078
0.9634 0.82024
0.9641 0.84468
0.9647 0.82024
0.9654 0.80578
0.9660 0.81753
0.9667 0.85298
0.9673 0.84447
0.9680 0.82024
0.9687 0.82011
0.9693 0.84447
0.9700 0.82011
0.9706 0.84447
0.9713 0.84741
0.9719 0.85856
0.9726 0.84741
0.9732 0.82011
0.9739 0.84447
0.9746 0.85196
0.9752 0.84741
0.9759 0.83624
0.9765 0.88507
0.9772 0.82771
0.9778 0.82771
0.9785 0.79599
0.9792 0.80637
0.9798 0.83624
0.9805 0.82878
0.9811 0.83325
0.9818 0.82771
0.9824 0.79753
0.9831 0.83325
0.9838 0.82878
0.9844 0.85194
0.9851 0.82771
0.9857 0.84188
0.9864 0.78576
0.9870 0.81925
0.9877 0.83761
0.9883 0.84731
0.9890 0.79843
0.9897 0.79654
0.9903 0.79803
0.9910 0.84043
0.9916 0.83433
0.9923 0.83612
0.9929 0.79060
0.9936 0.84118
0.9943 0.79803
0.9949 0.80562
0.9956 0.77287
0.9962 0.79972
0.9969 0.79337
0.9975 0.74794
0.9982 0.76216
0.9988 0.79337
0.9995 0.79442
1.0002 0.78140
1.0008 0.76488
1.0015 0.79337
1.0021 0.79442
1.0028 0.80476
1.0034 0.84595
1.0041 0.80476
1.0048 0.84732
1.0054 0.84595
1.0061 0.84732
1.0067 0.84732
1.0074 0.85937
1.0080 0.84732
1.0087 0.80231
1.0093 0.83144
1.0100 0.84688
1.0107 0.86385
1.0113 0.81315
1.0120 0.83144
1.0126 0.79421
1.0133 0.84688
1.0139 0.83144
1.0146 0.79677
1.0153 0.87423
1.0159 0.86499
1.0166 0.79941
1.0172 0.83461
1.0179 0.83461
1.0185 0.79941
1.0192 0.79941
1.0198 0.81658
1.0205 0.79941
1.0212 0.79009
1.0218 0.79286
1.0225 0.74962
1.0231 0.79286
1.0238 0.79009
1.0245 0.81658
1.0251 0.77222
1.0258 0.76188
1.0264 0.78151
1.0271 0.78840
1.0277 0.81253
1.0284 0.80239
1.0290 0.82128
1.0297 0.80239
1.0304 0.80239
1.0310 0.84335
1.0317 0.78201
1.0323 0.79038
1.0330 0.85800
1.0336 0.82128
1.0343 0.84808
1.0350 0.80052
1.0356 0.79816
1.0363 0.83477
1.0369 0.87226
1.0376 0.80892
1.0382 0.84294
1.0389 0.84747
1.0395 0.80437
1.0402 0.84294
1.0409 0.87843
1.0415 0.84747
1.0422 0.84294
1.0428 0.88203
1.0435 0.84294
1.0441 0.86457
1.0448 0.81105
1.0454 0.81989
1.0461 0.82392
1.0468 0.87758
1.0474 0.82942
1.0481 0.82392
1.0487 0.82971
1.0494 0.78533
1.0500 0.83197
1.0507 0.82971
1.0514 0.81354
1.0520 0.83197
1.0527 0.85226
1.0533 0.85057
1.0540 0.83197
1.0546 0.80637
1.0553 0.83914
1.0559 0.85057
1.0566 0.83632
1.0573 0.82732
1.0579 0.83914
1.0586 0.87045
1.0592 0.83632
1.0599 0.83632
1.0606 0.87052
1.0612 0.80278
1.0619 0.82162
1.0625 0.82565
1.0632 0.83297
1.0638 0.83297
1.0645 0.87052
1.0651 0.83297
1.0658 0.83108
1.0665 0.87171
1.0671 0.88764
1.0678 0.87649
1.0684 0.87649
1.0691 0.88513
1.0697 0.87171
1.0704 0.89700
1.0711 0.87153
1.0717 0.84113
1.0724 0.82520
1.0730 0.88345
1.0737 0.86125
1.0743 0.87394
1.0750 0.81126
1.0756 0.83870
1.0763 0.83918
1.0770 0.82544
1.0776 0.90392
1.0783 0.85819
1.0789 0.85819
1.0796 0.83181
1.0802 0.86524
1.0809 0.85819
1.0816 0.83963
1.0822 0.88192
1.0829 0.86873
1.0835 0.86668
1.0842 0.89331
1.0848 0.84746
1.0855 0.83181
1.0861 0.84832
1.0868 0.85076
1.0875 0.87547
1.0881 0.87286
1.0888 0.86692
1.0894 0.83154
1.0901 0.87020
1.0907 0.90771
1.0914 0.84079
1.0921 0.85891
1.0927 0.86168
1.0934 0.86168
1.0940 0.86168
1.0947 0.87864
1.0953 0.86168
1.0960 0.85273
1.0966 0.85953
1.0973 0.84565
1.0980 0.89185
1.0986 0.87677
1.0993 0.87575
1.0999 0.85955
1.1006 0.89414
1.1013 0.90491
1.1019 0.91479
1.1026 0.91198
1.1032 0.87575
1.1039 0.86076
1.1045 0.86234
1.1052 0.85328
1.1058 0.90203
1.1065 0.88599
1.1072 0.89484
1.1078 0.90457
1.1085 0.87643
1.1091 0.89484
1.1098 0.93753
1.1104 0.92894
1.1111 0.87500
1.1118 0.93271
1.1124 0.97705
1.1131 0.87775
1.1137 0.92394
1.1144 0.96111
1.1150 0.97195
1.1157 0.89853
1.1163 0.92999
1.1170 0.97965
1.1177 0.94028
1.1183 0.92335
1.1190 0.95308
1.1196 0.95552
1.1203 0.94028
1.1209 0.95552
1.1216 0.96798
1.1222 0.95308
1.1229 0.90030
1.1236 0.98015
1.1242 0.96475
1.1249 0.91819
1.1255 0.96856
1.1262 0.96844
1.1268 0.93516
1.1275 0.93106
1.1282 0.94985
1.1288 0.94985
1.1295 0.96406
1.1301 0.94985
1.1308 0.92857
1.1314 0.97703
1.1321 0.94659
1.1327 0.92857
1.1334 0.98303
1.1341 0.89584
1.1347 0.94985
1.1354 0.94659
1.1360 0.95351
1.1367 0.99202
1.1374 0.95351
1.1380 0.92750
1.1387 0.95351
1.1393 0.97119
1.1400 0.96470
1.1406 0.95967
1.1413 0.96470
1.1419 0.97235
1.1426 0.99340
1.1433 0.98600
1.1439 1.01025
1.1446 0.95714
1.1452 1.01424
1.1459 0.97235
1.1465 1.03118
1.1472 1.00656
1.1479 0.92838
1.1485 0.95990
1.1492 0.95990
1.1498 0.93646
1.1505 1.01007
1.1511 0.98739
1.1518 0.95780
1.1524 0.93458
1.1531 0.95990
1.1538 0.96714
1.1544 1.01158
1.1551 0.93667
1.1557 0.96132
1.1564 0.94825
1.1570 0.93762
1.1577 1.00227
1.1583 0.95693
1.1590 0.90012
1.1597 0.96894
1.1603 0.90528
1.1610 0.94825
1.1616 0.95693
1.1623 0.94774
1.1629 0.96710
1.1636 0.93248
1.1643 0.97718
1.1649 0.98108
1.1656 0.93870
1.1662 0.97154
1.1669 0.97271
1.1675 0.92440
1.1682 0.93383
1.1689 0.97417
1.1695 0.95962
1.1702 0.95962
1.1708 0.91611
1.1715 0.94962
1.1721 0.97239
1.1728 0.94962
1.1735 0.94342
1.1741 0.94962
1.1748 0.99153
1.1754 0.97239
1.1761 0.98139
1.1767 0.93337
1.1774 0.98098
1.1780 1.00820
1.1787 0.98139
1.1794 0.92688
1.1800 1.01799
1.1807 1.00487
1.1813 1.00975
1.1820 0.99002
1.1826 0.94013
1.1833 0.97232
1.1840 0.99095
1.1846 0.95077
1.1853 0.95518
1.1859 0.93403
1.1866 0.95518
1.1872 0.97393
1.1879 0.99716
1.1886 0.92764
1.1892 0.95322
1.1899 0.99132
1.1905 0.95322
1.1912 0.96460
1.1918 0.91084
1.1925 0.96734
1.1931 0.91665
1.1938 0.95955
1.1945 0.96943
1.1951 0.96004
1.1958 0.99812
1.1964 1.01818
1.1971 0.96577
1.1977 0.96852
1.1984 0.99220
1.1990 0.99478
1.1997 0.96157
1.2004 0.98938
1.2010 0.98938
1.2017 0.95680
1.2023 0.91175
1.2030 0.95108
1.2036 0.99480
1.2043 0.96224
1.2050 0.98938
1.2056 1.00960
1.2063 0.94659
1.2069 0.96224
1.2076 1.03850
1.2082 0.99297
1.2089 1.01281
1.2095 1.01130
1.2102 0.99453
1.2109 1.00752
1.2115 1.03790
1.2122 1.02256
1.2128 0.96893
1.2135 0.97726
1.2142 1.02650
1.2148 1.01819
1.2155 1.05490
1.2161 0.99171
1.2168 0.96247
1.2174 1.03315
1.2181 1.00550
1.2187 1.02165
1.2194 0.98998
1.2201 0.94209
1.2207 1.02891
1.2214 0.95736
1.2220 0.92555
1.2227 0.98998
1.2233 0.97347
1.2240 0.97878
1.2247 1.01611
1.2253 0.98011
1.2260 0.96080
1.2266 1.01088
1.2273 1.03181
1.2279 1.00925
1.2286 1.00925
1.2292 0.96544
1.2299 1.04171
1.2306 1.01088
1.2312 1.03785
1.2319 1.07113
1.2325 1.00901
1.2332 1.03292
1.2338 1.01613
1.2345 0.97473
1.2351 1.00767
1.2358 1.00596
1.2365 1.01317
1.2371 1.01338
1.2378 0.99572
1.2384 1.01524
1.2391 1.02110
1.2397 0.97111
1.2404 1.00184
1.2411 0.94295
1.2417 1.04571
1.2424 1.00184
1.2430 0.96902
1.2437 1.01822
1.2443 0.98873
1.2450 0.98726
1.2456 0.98633
1.2463 1.05004
1.2470 1.01337
1.2476 0.96983
1.2483 0.99306
1.2489 1.01204
1.2496 1.01193
1.2503 1.04676
1.2509 1.06719
1.2516 1.02451
1.2522 1.05021
1.2529 0.96300
1.2535 1.01204
1.2542 1.03413
1.2548 1.01036
1.2555 0.97326
1.2562 1.03453
1.2568 1.01036
1.2575 1.01823
1.2581 0.99286
1.2588 0.93781
1.2594 0.97086
1.2601 1.02890
1.2608 1.02251
1.2614 0.99334
1.2621 0.95845
1.2627 0.96811
1.2634 0.95230
1.2640 0.99334
1.2647 0.97291
1.2653 1.02705
1.2660 0.99990
1.2667 0.97291
1.2673 0.97549
1.2680 0.97549
1.2686 1.05311
1.2693 1.02655
1.2699 1.02705
1.2706 0.99299
1.2712 1.02655
1.2719 1.01528
1.2726 1.02655
1.2732 1.00315
1.2739 1.00315
1.2745 0.99299
1.2752 1.00315
1.2758 0.98166
1.2765 1.01528
1.2772 0.98261
1.2778 1.00315
1.2785 1.02560
1.2791 1.03999
1.2798 1.02560
1.2804 1.01528
1.2811 1.06767
1.2818 1.03999
1.2824 1.04766
1.2831 1.06193
1.2837 1.02560
1.2844 1.06018
1.2850 1.03999
1.2857 1.02330
1.2864 0.97452
1.2870 1.02330
1.2877 0.97452
1.2883 0.97429
1.2890 0.94148
1.2896 0.93953
1.2903 0.94511
1.2910 0.99525
1.2916 0.99525
1.2923 0.99525
1.2929 1.02664
1.2936 0.96431
1.2942 1.00786
1.2949 1.02375
1.2955 0.99739
1.2962 1.05896
1.2969 1.00786
1.2975 1.01920
1.2982 0.98240
1.2988 0.96253
1.2995 0.99739
1.3001 0.98614
1.3008 1.02881
1.3014 1.00786
1.3021 1.06083
1.3028 1.02666
1.3034 1.02754
1.3041 1.05500
1.3047 1.07556
1.3054 1.05044
1.3060 1.05044
1.3067 1.00741
1.3074 1.02666
1.3080 1.06170
1.3087 1.04083
1.3093 1.05537
1.3100 1.09475
1.3106 1.10106
1.3113 1.08891
1.3119 1.07451
1.3126 1.03494
1.3133 1.01466
1.3139 1.05537
1.3146 1.06355
1.3152 1.00113
1.3159 1.05227
1.3165 1.04938
1.3172 1.07261
1.3179 1.05227
1.3185 1.06400
1.3192 1.04938
1.3198 1.05848
1.3205 1.06252
1.3211 1.03371
1.3218 1.06592
1.3224 1.07187
1.3231 1.05722
1.3238 1.05722
1.3244 1.05848
1.3251 1.04044
1.3257 1.04583
1.3264 1.12236
1.3271 1.08276
1.3277 1.05722
1.3284 1.09412
1.3290 1.08229
1.3297 1.08276
1.3303 1.08501
1.3310 1.08229
1.3316 1.06738
1.3323 1.09574
1.3330 1.03423
1.3336 1.06738
1.3343 1.06738
1.3349 1.08274
1.3356 1.06488
1.3362 1.03460
1.3369 1.03725
1.3376 1.01244
1.3382 1.04956
1.3389 1.08712
1.3395 1.02213
1.3402 1.01872
1.3408 1.04698
1.3415 1.08871
1.3421 1.06267
1.3428 1.06267
1.3435 1.03539
1.3441 1.08871
1.3448 1.12845
1.3454 1.13467
1.3461 1.13174
1.3467 1.19871
1.3474 1.12845
1.3480 1.17636
1.3487 1.17112
1.3494 1.17636
1.3500 1.13467
1.3507 1.13174
1.3513 1.17112
1.3520 1.12845
1.3526 1.09462
1.3533 1.17636
1.3540 1.19341
1.3546 1.19341
1.3553 1.19341
1.3559 1.19341
1.3566 1.26725
1.3572 1.20785
1.3579 1.20785
1.3585 1.20785
1.3592 1.26725
1.3599 1.20785
1.3605 0.99835
1.3612 0.99835
1.3618 1.05423
1.3625 1.05423
1.3632 1.20785
1.3638 1.20785
1.3645 1.25896
1.3651 1.25896
1.3658 1.25896
1.3664 1.20785
1.3671 1.25896
1.3677 1.24737
1.3684 1.24737
1.3691 1.25896
1.3697 1.24737
1.3704 1.24737
1.3710 1.24737
1.3717 1.24737
1.3723 1.25296
1.3730 1.24737
1.3737 1.24427
1.3743 1.20078
1.3750 1.06044
1.3756 1.05718
1.3763 0.98528
1.3769 0.93160
1.3776 0.93160
1.3782 1.05718
1.3789 1.06044
1.3796 1.07736
1.3802 1.07736
1.3809 1.09983
1.3815 1.07736
1.3822 1.09983
1.3828 1.07736
1.3835 1.09983
1.3841 1.09983
1.3848 1.15091
1.3855 1.15091
1.3861 1.23704
1.3868 1.15091
1.3874 1.23704
1.3881 1.23704
1.3887 1.23704
1.3894 1.15091
1.3901 1.23704
1.3907 1.28317
1.3914 1.28317
1.3920 1.13009
1.3927 1.13009
1.3933 1.12992
1.3940 1.12992
1.3947 1.12785
1.3953 1.11680
1.3960 1.11680
1.3966 1.11680
1.3973 1.11680
1.3979 1.11135
1.3986 1.06533
1.3993 1.05525
1.3999 1.11135
1.4006 1.06533
1.4012 1.06533
1.4019 1.11680
1.4025 1.06533
1.4032 1.05429
1.4039 1.05668
1.4045 1.11135
1.4052 1.14582
1.4058 1.17583
1.4065 1.05668
1.4071 1.14042
1.4078 1.05668
1.4084 1.06801
1.4091 1.06391
1.4098 1.05668
1.4104 1.06391
1.4111 1.06391
1.4117 1.02021
1.4124 1.06801
1.4130 1.06801
1.4137 1.06391
1.4143 1.08591
1.4150 1.08591
1.4157 1.14284
1.4163 1.08591
1.4170 1.11824
1.4176 1.11824
1.4183 1.08591
1.4189 1.08591
1.4196 1.08591
1.4203 1.11635
1.4209 1.11896
1.4216 1.11635
1.4222 1.11635
1.4229 1.11635
1.4235 1.11635
1.4242 1.11635
1.4248 1.11635
1.4255 1.11635
1.4262 1.09233
1.4268 1.09570
1.4275 1.15962
1.4281 1.16817
1.4288 1.13395
1.4294 1.13395
1.4301 1.22214
1.4308 1.13395
1.4314 1.17450
1.4321 1.11757
1.4327 1.13395
1.4334 1.11757
1.4340 1.08833
1.4347 1.11210
1.4353 1.11210
1.4360 1.11210
1.4367 1.11861
1.4373 1.12239
1.4380 1.10600
1.4386 1.12239
1.4393 1.12239
1.4400 1.18180
1.4406 1.11861
1.4413 1.11861
1.4419 1.11861
1.4426 1.12972
1.4432 1.16383
1.4439 1.14562
1.4445 1.14562
1.4452 1.14562
1.4459 1.14562
1.4465 1.14562
1.4472 1.14562
1.4478 1.12452
1.4485 1.12452
1.4491 1.10625
1.4498 1.07993
1.4505 1.09503
1.4511 1.12452
1.4518 1.12452
1.4524 1.19283
1.4531 1.13819
1.4537 1.12452
1.4544 1.13819
1.4550 1.19283
1.4557 1.22554
1.4564 1.22554
1.4570 1.18984
1.4577 1.22119
1.4583 1.22554
1.4590 1.23138
1.4596 1.26337
1.4603 1.22119
1.4609 1.28741
1.4616 1.23138
1.4623 1.22119
1.4629 1.28196
1.4636 1.22834
1.4642 1.22834
1.4649 1.15400
1.4655 1.17081
1.4662 1.22989
1.4669 1.21393
1.4675 1.17081
1.4682 1.16632
1.4688 1.15468
1.4695 1.16632
1.4701 1.16975
1.4708 1.16975
1.4714 1.18002
1.4721 1.17423
1.4728 1.19425
1.4734 1.14705
1.4741 1.13600
1.4747 1.16975
1.4754 1.18400
1.4761 1.16775
1.4767 1.17868
1.4774 1.21598
1.4780 1.18057
1.4787 1.15732
1.4793 1.21243
1.4800 1.19887
1.4806 1.20962
1.4813 1.27573
1.4820 1.19248
1.4826 1.26886
1.4833 1.21243
1.4839 1.23145
1.4846 1.19887
1.4852 1.24833
1.4859 1.24945
1.4866 1.25500
1.4872 1.18689
1.4879 1.19887
1.4885 1.17239
1.4892 1.18689
1.4898 1.20979
1.4905 1.18689
1.4912 1.18484
1.4918 1.11915
1.4925 1.14384
1.4931 1.24172
1.4938 1.18484
1.4944 1.18484
1.4951 1.18484
1.4957 1.12776
1.4964 1.18906
1.4970 1.21933
1.4977 1.18548
1.4984 1.17615
1.4990 1.20822
1.4997 1.20531
1.5003 1.16976
1.5010 1.25546
1.5016 1.21133
1.5023 1.24658
1.5030 1.22318
1.5036 1.20531
1.5043 1.21133
1.5049 1.21133
1.5056 1.21133
1.5062 1.21133
1.5069 1.22109
1.5076 1.21636
1.5082 1.21636
1.5089 1.25201
1.5095 1.15699
1.5102 1.21636
1.5108 1.21030
1.5115 1.22109
1.5122 1.21030
1.5128 1.25381
1.5135 1.21046
1.5141 1.22038
1.5148 1.22038
1.5154 1.24012
1.5161 1.23365
1.5168 1.22038
1.5174 1.18592
1.5181 1.23535
1.5187 1.17848
1.5194 1.15145
1.5200 1.17848
1.5207 1.20661
1.5213 1.17054
1.5220 1.17361
1.5227 1.13236
1.5233 1.15784
1.5240 1.20980
1.5246 1.13264
1.5253 1.15518
1.5259 1.15784
1.5266 1.09419
1.5272 1.15784
1.5279 1.12290
1.5286 1.14331
1.5292 1.15518
1.5299 1.15518
1.5305 1.21121
1.5312 1.15518
1.5318 1.15930
1.5325 1.21121
1.5332 1.27560
1.5338 1.21666
1.5345 1.26920
1.5351 1.21121
1.5358 1.20593
1.5364 1.25578
1.5371 1.23936
1.5377 1.17491
1.5384 1.21666
1.5391 1.22316
1.5397 1.22061
1.5404 1.21292
1.5410 1.21666
1.5417 1.21292
1.5424 1.22061
1.5430 1.22316
1.5437 1.23721
1.5443 1.22061
1.5450 1.19850
1.5456 1.24465
1.5463 1.22061
1.5469 1.29534
1.5476 1.31747
1.5482 1.27491
1.5489 1.20295
1.5496 1.20878
1.5502 1.25800
1.5509 1.25800
1.5515 1.25800
1.5522 1.26285
1.5529 1.20380
1.5535 1.18969
1.5542 1.28508
1.5548 1.26285
1.5555 1.23205
1.5561 1.20774
1.5568 1.20380
1.5574 1.18969
1.5581 1.17257
1.5588 1.20774
1.5594 1.16588
1.5601 1.22201
1.5607 1.22201
1.5614 1.22201
1.5620 1.20774
1.5627 1.11433
1.5633 1.15032
1.5640 1.15032
1.5647 1.15032
1.5653 1.15032
1.5660 1.15970
1.5666 1.12656
1.5673 1.15032
1.5679 1.15970
1.5686 1.15970
1.5693 1.15032
1.5699 1.13500
1.5706 1.16488
1.5712 1.17909
1.5719 1.10322
1.5725 1.13500
1.5732 1.08132
1.5739 1.13099
1.5745 1.10322
1.5752 1.09670
1.5758 1.09854
1.5765 1.13099
1.5771 1.18950
1.5778 1.13775
1.5784 1.15786
1.5791 1.14733
1.5798 1.15786
1.5804 1.18950
1.5811 1.20318
1.5817 1.15786
1.5824 1.22073
1.5830 1.20762
1.5837 1.20762
1.5843 1.20762
1.5850 1.22073
1.5857 1.20318
1.5863 1.15786
1.5870 1.24210
1.5876 1.18893
1.5883 1.13921
1.5890 1.18893
1.5896 1.13998
1.5903 1.13455
1.5909 1.14400
1.5916 1.13998
1.5922 1.20582
1.5929 1.11184
1.5935 1.17529
1.5942 1.20410
1.5949 1.14664
1.5955 1.20040
1.5962 1.20040
1.5968 1.18997
1.5975 1.19042
1.5981 1.20071
1.5988 1.20071
1.5995 1.20071
1.6001 1.20040
1.6008 1.19042
1.6014 1.24874
1.6021 1.27299
1.6027 1.22992
1.6034 1.22992
1.6040 1.22992
1.6047 1.18717
1.6054 1.24874
1.6060 1.24874
1.6067 1.20429
1.6073 1.18931
1.6080 1.21557
1.6086 1.25419
1.6093 1.18931
1.6099 1.20429
1.6106 1.18642
1.6113 1.18931
1.6119 1.13498
1.6126 1.15273
1.6132 1.09573
1.6139 1.14940
1.6145 1.14477
1.6152 1.11504
1.6159 1.15273
1.6165 1.20049
1.6172 1.14477
1.6178 1.11948
1.6185 1.14275
1.6191 1.16098
1.6198 1.14275
1.6205 1.14477
1.6211 1.14964
1.6218 1.13462
1.6224 1.12305
1.6231 1.11644
1.6237 1.13324
1.6244 1.18099
1.6251 1.13462
1.6257 1.13462
1.6264 1.13749
1.6270 1.13324
1.6277 1.13749
1.6283 1.18575
1.6290 1.18099
1.6296 1.18575
1.6303 1.19592
1.6310 1.13789
1.6316 1.13089
1.6323 1.20308
1.6329 1.13739
1.6336 1.18869
1.6342 1.20125
1.6349 1.19592
1.6356 1.20308
1.6362 1.20125
1.6369 1.16094
1.6375 1.24100
1.6382 1.26898
1.6388 1.20686
1.6395 1.22157
1.6402 1.16020
1.6408 1.16020
1.6415 1.16094
1.6421 1.07438
1.6428 1.16020
1.6434 1.16020
1.6441 1.16020
1.6454 1.15909
1.6464 1.15909
1.6474 1.15909
1.6484 1.15909
1.6495 1.15247
1.6505 1.15247
1.6515 1.15247
1.6525 1.17639
1.6535 1.17639
1.6545 1.18007
1.6556 1.18007
1.6566 1.15247
1.6576 1.16102
1.6586 1.16102
1.6596 1.15247
1.6606 1.14795
1.6617 1.14789
1.6627 1.14795
1.6637 1.15578
1.6647 1.18976
1.6657 1.18976
1.6667 1.15578
1.6677 1.16102
1.6688 1.16102
1.6698 1.16102
1.6708 1.16102
1.6718 1.15578
1.6728 1.14789
1.6738 1.14664
1.6748 1.15578
1.6759 1.16534
1.6769 1.14789
1.6779 1.15293
1.6789 1.15286
1.6799 1.15286
1.6809 1.15293
1.6820 1.16534
1.6830 1.16534
1.6840 1.15293
1.6850 1.16534
1.6860 1.17318
1.6870 1.16534
1.6881 1.16534
1.6891 1.17374
1.6901 1.17157
1.6911 1.17157
1.6921 1.17277
1.6931 1.17374
1.6942 1.17884
1.6952 1.16492
1.6962 1.17374
1.6972 1.17884
1.6982 1.18958
1.6992 1.19000
1.7003 1.18713
1.7013 1.17884
1.7023 1.17277
1.7033 1.17157
1.7043 1.16255
1.7053 1.18713
1.7063 1.17277
1.7074 1.17277
1.7084 1.17277
1.7094 1.17028
1.7104 1.17028
1.7114 1.16255
1.7124 1.15698
1.7134 1.14646
1.7145 1.14646
1.7155 1.16639
1.7165 1.15698
1.7175 1.15698
1.7185 1.15698
1.7195 1.13519
1.7206 1.15698
1.7216 1.15698
1.7226 1.14646
1.7236 1.13710
1.7246 1.13710
1.7256 1.13710
1.7267 1.13673
1.7277 1.13673
1.7287 1.13710
1.7297 1.13710
1.7307 1.16141
1.7317 1.16141
1.7328 1.15115
1.7338 1.13710
1.7348 1.13710
1.7358 1.15115
1.7368 1.15115
1.7378 1.15115
1.7389 1.15886
1.7399 1.16141
1.7409 1.16374
1.7419 1.16374
1.7429 1.16141
1.7439 1.15886
1.7449 1.16518
1.7460 1.16842
1.7470 1.16581
1.7480 1.15886
1.7490 1.15115
1.7500 1.15115
1.7510 1.15886
1.7521 1.15886
1.7531 1.14161
1.7541 1.14161
1.7551 1.13561
1.7561 1.13561
1.7571 1.12534
1.7582 1.11532
1.7592 1.11532
1.7602 1.12534
1.7612 1.12534
1.7622 1.12534
1.7632 1.13201
1.7642 1.13561
1.7653 1.13201
1.7663 1.13561
1.7673 1.13561
1.7683 1.13201
1.7693 1.13201
1.7703 1.14039
1.7713 1.14151
1.7724 1.15299
1.7734 1.14976
1.7744 1.15299
1.7754 1.16635
1.7764 1.15299
1.7774 1.16635
1.7785 1.15299
1.7795 1.15299
1.7805 1.15189
1.7815 1.14976
1.7825 1.14774
1.7835 1.14072
1.7846 1.14774
1.7856 1.15189
1.7866 1.14698
1.7876 1.14698
1.7886 1.14427
1.7896 1.14427
1.7907 1.14072
1.7917 1.13565
1.7927 1.12026
1.7937 1.09064
1.7947 1.12008
1.7957 1.09064
1.7968 1.08904
1.7978 1.08904
1.7988 1.08904
1.7998 1.08904
1.8008 1.09064
1.8018 1.08904
1.8028 1.08546
1.8039 1.08546
1.8049 1.11637
1.8059 1.11637
1.8069 1.11281
1.8079 1.08546
1.8089 1.11281
1.8099 1.11637
1.8110 1.12008
1.8120 1.11637
1.8130 1.11281
1.8140 1.11281
1.8150 1.11281
1.8160 1.12630
1.8171 1.12630
1.8181 1.08546
1.8191 1.08546
1.8201 1.12630
1.8211 1.12630
1.8221 1.11223
1.8232 1.06216
1.8242 1.06216
1.8252 1.08428
1.8262 1.08428
1.8272 1.08428
1.8282 1.06216
1.8293 1.06216
1.8303 1.08428
1.8313 1.11223
1.8323 1.12630
1.8333 1.11223
1.8343 1.08508
1.8353 1.14143
1.8364 1.15704
1.8374 1.14143
1.8384 1.12446
1.8394 1.11223
1.8404 1.12446
1.8414 1.12446
1.8425 1.16221
1.8435 1.14143
1.8445 1.12446
1.8455 1.14143
1.8465 1.16221
1.8475 1.14143
1.8485 1.14143
1.8496 1.12446
1.8506 1.12446
1.8516 1.12446
1.8526 1.17923
1.8536 1.12446
1.8546 1.07112
1.8557 1.12446
1.8567 1.17923
1.8577 1.18162
1.8587 1.18922
1.8597 1.18922
1.8607 1.18162
1.8617 1.20172
1.8628 1.20925
1.8638 1.20172
1.8648 1.11744
1.8658 1.11744
1.8668 1.18162
1.8678 1.11744
1.8689 1.20172
1.8699 1.22117
1.8709 1.20172
1.8719 1.22117
1.8729 1.22117
1.8739 1.22117
1.8750 1.20344
1.8760 1.11744
1.8770 1.11744
1.8780 0.99973
1.8790 0.99973
1.8800 1.06681
1.8811 0.99973
1.8821 1.06694
1.8831 1.06681
1.8841 1.06694
1.8851 1.06694
1.8861 1.06681
1.8872 1.06681
1.8882 1.06681
1.8892 1.05947
1.8902 1.05947
1.8912 1.02052
1.8922 1.06681
1.8932 1.05947
1.8943 1.06694
1.8953 1.13404
1.8963 1.06694
1.8973 1.06694
1.8983 1.13404
1.8993 1.13404
1.9003 1.06694
1.9014 1.11363
1.9024 1.11363
1.9034 1.05947
1.9044 1.11363
1.9054 1.13404
1.9064 1.11363
1.9075 1.05074
1.9085 1.11363
1.9095 1.18108
1.9105 1.18108
1.9115 1.11363
1.9125 1.11363
1.9136 1.05947
1.9146 1.11363
1.9156 1.15922
1.9166 1.15922
1.9176 1.12838
1.9186 1.11363
1.9197 1.12838
1.9207 1.15922
1.9217 1.13709
1.9227 1.15922
1.9237 1.19917
1.9247 1.15922
1.9258 1.21809
1.9268 1.21809
1.9278 1.19917
1.9288 1.15922
1.9298 1.15663
1.9308 1.15922
1.9318 1.13709
1.9329 1.13709
1.9339 1.15663
1.9349 1.12838
1.9359 1.11134
1.9369 1.13709
1.9379 1.11134
1.9389 1.13709
1.9400 1.11134
1.9410 1.11055
1.9420 1.10602
1.9430 1.10602
1.9440 1.11134
1.9450 1.10602
1.9461 1.07263
1.9471 1.08778
1.9481 1.08778
1.9491 1.07263
1.9501 1.07261
1.9511 1.05997
1.9522 1.05997
1.9532 1.07261
1.9542 1.07261
1.9552 1.07261
1.9562 1.05997
1.9572 1.07261
1.9582 1.09244
1.9593 1.09665
1.9603 1.09665
1.9613 1.08778
1.9623 1.09665
1.9633 1.09244
1.9643 1.09665
1.9654 1.09665
1.9664 1.10303
1.9674 1.10678
1.9684 1.10678
1.9694 1.13068
1.9704 1.13685
1.9715 1.13068
1.9725 1.10853
1.9735 1.10853
1.9745 1.13068
1.9755 1.10303
1.9765 1.10303
1.9775 1.10471
1.9786 1.07329
1.9796 1.10303
1.9806 1.10678
1.9816 1.10471
1.9826 1.10303
1.9836 1.10303
1.9847 1.10303
1.9857 1.09218
1.9867 1.07740
1.9877 1.08602
1.9887 1.07380
1.9897 1.07329
1.9908 1.07740
1.9918 1.05478
1.9928 1.04616
1.9938 1.04616
1.9948 1.05478
1.9958 1.07380
1.9969 1.07380
1.9979 1.07380
1.9989 1.05478
1.9999 1.05478
2.0009 1.02739
2.0019 1.02065
2.0029 1.00348
2.0040 1.00348
2.0050 1.01148
2.0060 1.00348
2.0070 1.02065
2.0080 1.02739
2.0090 1.02065
2.0101 1.05953
2.0111 1.07752
2.0121 1.07752
2.0131 1.03720
2.0141 1.03720
2.0151 1.05953
2.0162 1.05953
2.0172 1.05953
2.0182 1.08977
2.0192 1.06614
2.0202 1.06614
2.0212 1.08977
2.0222 1.09812
2.0233 1.09812
2.0243 1.09745
2.0253 1.09745
2.0263 1.09812
2.0273 1.08977
2.0283 1.09812
2.0294 1.09812
2.0304 1.09745
2.0314 1.09745
2.0324 1.09745
2.0334 1.09745
2.0344 1.08128
2.0354 1.06614
2.0365 1.08128
2.0375 1.09337
2.0385 1.08128
2.0395 1.09745
2.0405 1.09745
2.0415 1.09745
2.0426 1.09337
2.0436 1.08585
2.0446 1.08585
2.0456 1.06057
2.0466 1.03627
2.0476 1.08128
2.0486 1.06057
2.0497 1.06057
2.0507 1.03627
2.0517 1.06057
2.0527 1.08585
2.0537 1.08585
2.0547 1.09071
2.0558 1.09071
2.0568 1.08585
2.0578 1.08585
2.0588 1.08585
2.0598 1.07100
2.0608 1.04765
2.0619 1.05094
2.0629 1.07100
2.0639 1.09071
2.0649 1.08175
2.0659 1.08175
2.0669 1.09071
2.0680 1.09071
2.0690 1.09727
2.0700 1.09727
2.0710 1.09071
2.0720 1.09071
2.0730 1.09465
2.0741 1.10535
2.0751 1.09465
2.0761 1.08777
2.0771 1.08777
2.0781 1.08777
2.0791 1.10803
2.0801 1.11963
2.0812 1.11963
2.0822 1.09465
2.0832 1.10803
2.0842 1.11723
2.0852 1.11963
2.0862 1.11963
2.0873 1.11768
2.0883 1.11723
2.0893 1.11768
2.0903 1.11963
2.0913 1.12874
2.0923 1.11723
2.0934 1.11768
2.0944 1.11768
2.0954 1.11768
2.0964 1.11768
2.0974 1.11768
2.0984 1.11768
2.0994 1.11723
2.1005 1.11723
2.1015 1.11768
2.1025 1.13692
2.1035 1.13921
2.1045 1.10615
2.1055 1.10615
2.1065 1.07502
2.1076 1.07480
2.1086 1.07502
2.1096 1.07480
2.1106 1.05103
2.1116 1.07502
2.1126 1.09677
2.1137 1.12682
2.1147 1.10615
2.1157 1.12682
2.1167 1.10615
2.1177 1.09677
2.1187 1.09677
2.1198 1.09677
2.1208 1.08873
2.1218 1.06370
2.1228 1.05717
2.1238 1.06370
2.1248 1.06370
2.1258 1.08873
2.1269 1.08873
2.1279 1.08662
2.1289 1.05956
2.1299 1.06370
2.1309 1.07076
2.1319 1.06370
2.1330 1.05288
2.1340 1.05288
2.1350 1.05075
2.1360 1.05288
2.1370 1.05956
2.1380 1.07076
2.1391 1.05956
2.1401 1.05956
2.1411 1.07109
2.1421 1.07376
2.1431 1.08292
2.1441 1.08292
2.1452 1.07109
2.1462 1.07109
2.1472 1.08292
2.1482 1.08292
2.1492 1.08292
2.1502 1.07376
2.1513 1.07607
2.1523 1.08292
2.1533 1.08968
2.1543 1.10223
2.1553 1.09310
2.1563 1.08968
2.1573 1.10240
2.1584 1.12149
2.1594 1.12149
2.1604 1.13498
2.1614 1.13498
2.1624 1.12149
2.1634 1.12149
2.1644 1.12149
2.1655 1.12149
2.1665 1.07607
2.1675 1.07607
2.1685 1.12149
2.1695 1.12149
2.1705 1.13040
2.1716 1.13498
2.1726 1.13040
2.1736 1.12442
2.1746 1.07482
2.1756 1.09262
2.1766 1.07241
2.1777 1.07241
2.1787 1.07241
2.1797 1.06410
2.1807 1.05493
2.1817 1.07241
2.1827 1.07048
2.1837 1.07241
2.1848 1.07241
2.1858 1.09262
2.1868 1.08105
2.1878 1.08105
2.1888 1.09262
2.1898 1.09276
2.1909 1.09262
2.1919 1.09276
2.1929 1.09262
2.1939 1.09276
2.1949 1.09695
2.1959 1.10984
2.1970 1.10984
2.1980 1.10696
2.1990 1.10696
2.2000 1.11484
2.2010 1.11484
2.2020 1.11484
2.2031 1.13894
2.2041 1.14023
2.2051 1.13894
2.2061 1.15841
2.2071 1.15841
2.2081 1.15841
2.2091 1.11484
2.2102 1.11484
2.2112 1.11484
2.2122 1.05110
2.2132 1.04056
2.2142 1.04056
2.2152 1.04056
2.2163 1.05110
2.2173 1.05110
2.2183 1.02701
2.2193 1.04056
2.2203 1.04056
2.2213 1.04056
2.2224 1.02474
2.2234 1.01998
2.2244 1.00782
2.2254 1.00782
2.2264 0.98047
2.2274 1.01998
2.2284 0.98047
2.2295 0.98047
2.2305 1.02474
2.2315 1.05736
2.2325 1.02474
2.2335 1.02474
2.2345 1.01033
2.2355 1.02474
2.2366 1.04817
2.2376 1.05736
2.2386 1.05736
2.2396 1.04817
2.2406 1.05736
2.2416 1.09356
2.2427 1.09356
2.2437 1.09356
2.2447 1.11348
2.2457 1.15205
2.2467 1.11348
2.2477 1.11348
2.2488 1.15205
2.2498 1.06686
2.2508 1.05765
2.2518 1.05765
2.2528 1.06686
2.2538 1.06686
2.2548 1.10621
2.2559 1.11348
2.2569 1.11348
2.2579 1.11348
2.2589 1.15205
2.2599 1.15205
2.2609 1.15205
2.2620 1.15630
2.2630 1.10621
2.2640 1.05765
2.2650 1.05765
2.2660 1.06916
2.2670 1.10022
2.2681 1.10022
2.2691 1.10022
2.2701 1.10621
2.2711 1.10621
2.2721 1.15630
2.2731 1.10022
2.2742 1.09354
2.2752 1.06916
2.2762 1.01967
2.2772 1.01967
2.2782 1.05865
2.2792 1.01967
2.2803 1.01967
2.2813 1.05865
2.2823 1.05865
2.2833 1.06916
2.2843 1.07464
2.2853 1.07802
2.2863 1.06007
2.2874 1.05865
2.2884 1.06007
2.2894 1.05865
2.2904 1.05865
2.2914 1.06880
2.2924 1.06880
2.2934 1.07802
2.2945 1.12289
2.2955 1.13450
2.2965 1.13164
2.2975 1.13164
2.2985 1.12289
2.2995 1.11062
2.3006 1.11470
2.3016 1.13164
2.3026 1.11470
2.3036 1.11470
2.3046 1.11470
2.3056 1.13164
2.3067 1.13164
2.3077 1.13164
2.3087 1.13164
2.3097 1.11062
2.3107 1.07815
2.3117 1.09037
2.3127 1.07815
2.3138 1.07815
2.3148 1.09037
2.3158 1.11062
2.3168 1.11062
2.3178 1.09037
2.3188 1.02232
2.3199 1.02232
2.3209 0.92132
2.3219 0.92132
2.3229 0.92132
2.3239 0.92132
2.3249 1.08867
2.3260 1.09037
2.3270 1.09231
2.3280 1.09957
2.3290 1.09957
2.3300 1.09957
2.3310 1.13981
2.3321 1.08952
2.3331 1.08952
2.3341 1.08867
2.3351 1.08012
2.3361 1.09231
2.3371 1.08952
2.3382 1.09231
2.3392 1.09957
2.3402 1.09421
2.3412 1.09421
2.3422 1.09421
2.3432 1.09421
2.3442 1.09421
2.3453 1.09231
2.3463 1.09109
2.3473 1.09109
2.3483 1.09109
2.3493 1.09421
2.3503 1.11072
2.3514 1.11072
2.3524 1.11409
2.3534 1.18235
2.3544 1.18235
2.3554 1.20020
2.3564 1.11409
2.3575 1.11409
2.3585 1.17848
2.3595 1.15654
2.3605 1.18235
2.3615 1.18235
2.3625 1.18235
2.3635 1.18235
2.3646 1.18235
2.3656 1.24186
2.3666 1.25701
2.3676 1.24186
2.3686 1.26614
2.3696 1.25701
2.3706 1.24186
2.3717 1.24186
2.3727 1.23620
2.3737 1.18468
2.3747 1.17848
2.3757 1.17848
2.3767 1.15654
2.3778 1.14830
2.3788 1.14830
2.3798 1.01335
2.3808 0.98151
2.3818 0.98151
2.3828 1.01335
2.3839 0.98151
2.3849 1.01335
2.3859 1.01335
2.3869 0.98151
2.3879 0.98151
2.3889 0.98151
2.3899 0.96844
2.3910 0.95405
2.3920 0.95042
2.3930 0.95405
2.3940 0.94992
2.3950 0.95042
2.3960 0.96844
2.3971 0.96844
2.3981 0.98958
2.3991 0.98958
2.4001 1.11794
