Asteroid designations ( Number, Name, Temporary designation): 1953, Rupertwildt,  1951 UK, J51U00K, 1929 VC, J29V00C, 1929 WD, J29W00D, 1934 RJ, J34R00J, 1951 WG, J51W00G, 1958 BD, J58B00D
Observation was done on (UT) (format YYYY-MM-DD-hh): 2012 - 12 - 18 - 04:23
Observation was made by : Fornasier Sonia E-mail; sonia.fornasier@obspm.fr
At observatory with UAI code: 950
Obsv. comments: uploaded by Simon Anghel
The spectrum was published in the article: http://adsabs.harvard.edu/abs/2016Icar..269....1F
The normalization of this spectrum was made for the wavelength: 0.550 microns.
Original name of the file was: 1953_Rupertwildt.csv
Wavelength[um]	Reflectance	sigma(optional)
0.4500000 1.00488
0.4550000 1.00781
0.4600000 1.00293
0.4650000 1.01074
0.4700000 1.00977
0.4750000 1.00391
0.4800000 1.00391
0.4850000 1.00098
0.4900000 1.00781
0.4950000 1.00391
0.5000000 1.00391
0.5050000 1.00586
0.5100000 1.00781
0.5150000 1.00977
0.5200000 1.00684
0.5250000 1.00586
0.5300000 1.00195
0.5350000 1.00195
0.5400000 1.00000
0.5450000 1.00098
0.5500000 1.00000
0.5550000 1.00000
0.5600000 1.00391
0.5650000 1.00977
0.5700000 0.99316
0.5750000 0.99121
0.5800000 0.98535
0.5850000 0.99805
0.5900000 0.98145
0.5950000 0.99121
0.6000000 0.98340
0.6050000 0.98535
0.6100000 0.98633
0.6150000 0.98340
0.6200000 0.98340
0.6250000 0.97949
0.6300000 0.98340
0.6350000 0.98633
0.6400000 0.98340
0.6450000 0.98633
0.6500000 0.97266
0.6550000 0.98340
0.6600000 0.97852
0.6650000 0.97363
0.6700000 0.97754
0.6750000 0.97949
0.6800000 0.96582
0.6850000 0.97852
0.6900000 0.96973
0.6950000 0.97559
0.7000000 0.96777
0.7050000 0.96582
0.7100000 0.96875
0.7150000 0.96680
0.7200000 0.97266
0.7250000 0.97656
0.7300000 0.96582
0.7350000 0.97559
0.7400000 0.97168
0.7450000 0.96484
0.7500000 0.97266
0.7550000 0.97168
0.7600000 0.95215
0.7650000 0.95703
0.7700000 0.96680
0.7750000 0.96191
0.7800000 0.96484
0.7850000 0.95605
0.7900000 0.96973
0.7950000 0.96289
0.8000000 0.96582
0.8050000 0.97266
0.8100000 0.95996
0.8150000 0.96289
0.8200000 0.95898
0.8250000 0.96973
0.8300000 0.96484
0.8350000 0.97461
0.8400000 0.96582
0.8450000 0.95898
0.8500000 0.98926
0.8550000 0.96094
0.8600000 0.97168
0.8650000 0.97168
0.8700000 0.99805
0.8750000 0.95898
0.8800000 0.99414
0.8850000 0.97363
0.8900000 0.97070
0.8950000 0.97168
0.9000000 0.96484
0.9050000 0.97168
0.9100000 0.98047
0.9150000 0.98145
0.9200000 0.95605
0.9250000 0.97949
0.9300000 0.97949
0.9350000 0.97852
0.9400000 0.96191
0.9450000 0.97949
0.9500000 0.97949
0.9550000 0.97949
0.9600000 0.97949
0.9650000 0.97949
0.9700000 0.97949
0.9750000 0.97949
0.9800000 0.98047
0.9850000 0.99219
0.9900000 0.97852
0.9950000 0.99219
1.0000000 0.98047
1.0050000 0.97266
1.0100000 0.97266
1.0150000 0.97656
1.0200000 0.98633
1.0250000 0.98047
1.0300000 0.96484
1.0350000 0.99121
1.0400000 0.98535
1.0450000 0.96484
1.0500000 0.97656
1.0550000 0.96191
1.0600000 0.96484
1.0650000 0.97754
1.0700000 0.97363
1.0750000 0.96484
1.0800000 0.97363
1.0850000 0.97266
1.0900000 0.99121
1.0950000 0.98926
1.1000000 0.97168
1.1050000 0.97168
1.1100000 0.97461
1.1150000 0.96582
1.1200000 0.97266
1.1250000 0.98633
1.1300000 0.97559
1.1350000 0.97656
1.1400000 0.98730
1.1450000 0.99902
1.1500000 1.01074
1.1550000 1.01660
1.1600000 0.99902
1.1650000 0.97168
1.1700000 0.99121
1.1750000 0.99902
1.1800000 0.98633
1.1850000 0.98242
1.1900000 0.98535
1.1950000 0.99414
1.2000000 1.00488
1.2050000 0.99023
1.2100000 0.97852
1.2150000 0.99902
1.2200000 1.00488
1.2250000 1.00781
1.2300000 1.00781
1.2350000 1.00781
1.2400000 1.00879
1.2450000 1.00488
1.2500000 0.99707
1.2550000 0.99316
1.2600000 1.00293
1.2650000 1.01074
1.2700000 1.00977
1.2750000 1.00098
1.2800000 0.99414
1.2850000 0.99512
1.2900000 0.99414
1.2950000 0.99414
1.3000000 0.99609
1.3050000 0.99707
1.3100000 0.99902
1.3150000 1.00098
1.3200000 1.00195
1.3250000 1.00098
1.3300000 1.00391
1.5450000 1.07227
1.5500000 1.07227
1.5550000 1.07910
1.5600000 1.08008
1.5650000 1.07910
1.5700000 1.08984
1.5750000 1.10156
1.5800000 1.09766
1.5850000 1.08691
1.5900000 1.08105
1.5950000 1.07129
1.6000000 1.08008
1.6050000 1.08496
1.6100000 1.09375
1.6150000 1.09180
1.6200000 1.08496
1.6250000 1.08008
1.6300000 1.08105
1.6350000 1.09082
1.6400000 1.09766
1.6450000 1.09668
1.6500000 1.09863
1.6550000 1.10937
1.6600000 1.10840
1.6650000 1.10840
1.6700000 1.10449
1.6750000 1.10059
1.6800000 1.10254
1.6850000 1.10840
1.6900000 1.10645
1.6950000 1.08594
1.7000000 1.07129
1.7050000 1.09082
1.7100000 1.09863
1.7150000 1.10156
1.7200000 1.10254
1.7250000 1.11523
1.7300000 1.12109
1.7350000 1.09961
1.7400000 1.08691
1.7450000 1.08789
1.7500000 1.09473
1.7550000 1.10156
1.7600000 1.10352
1.7650000 1.11523
1.7700000 1.12402
1.7750000 1.11426
1.7800000 1.10547
1.7850000 1.10352
1.7900000 1.10645
1.7950000 1.11035
1.8000000 1.11816
2.0500000 1.15332
2.0550000 1.14063
2.0600000 1.13770
2.0650000 1.14551
2.0700000 1.13770
2.0750000 1.12988
2.0800000 1.14355
2.0850000 1.16211
2.0900000 1.16016
2.0950000 1.14844
2.1000000 1.13184
2.1050000 1.11719
2.1100000 1.11914
2.1150000 1.12793
2.1200000 1.12598
2.1250000 1.12305
2.1300000 1.12305
2.1350000 1.11523
2.1400000 1.11133
2.1450000 1.10840
2.1500000 1.11035
2.1550000 1.11621
2.1600000 1.11230
2.1650000 1.10840
2.1700000 1.10840
