Asteroid designations ( Number, Name, Temporary designation): 3615, Safronov,  1983 WZ, 1930 KS, 1951 AR, 1952 FK1, 1969 JJ, 1970 PO, 1974 EM, 1976 SB7
Observation was done on (UT) (format YYYY-MM-DD-hh): 2012 - 12 - 17 - 02:40
Observation was made by : Fornasier Sonia E-mail; sonia.fornasier@obspm.fr
At observatory with UAI code: 950
Obsv. comments: uploaded by Simon Anghel
The spectrum was published in the article: http://adsabs.harvard.edu/abs/2016Icar..269....1F
The normalization of this spectrum was made for the wavelength: 0.550 microns.
Original name of the file was: 3615 Safronov
Wavelength[um]	Reflectance	sigma(optional)
0.535    1.024
0.540    1.021
0.545    1.024
0.550    1.027
0.555    1.018
0.560    1.033
0.565    1.026
0.570    1.023
0.575    1.015
0.580    1.006
0.585    1.009
0.590    1.005
0.595    1.000
0.600    1.006
0.605    0.993
0.610    1.000
0.615    1.005
0.620    1.000
0.625    1.001
0.630    1.002
0.635    1.005
0.640    0.993
0.645    0.993
0.650    0.998
0.655    0.990
0.660    0.989
0.665    0.987
0.670    0.993
0.675    0.986
0.680    0.990
0.685    0.982
0.690    0.987
0.695    0.986
0.700    0.990
0.705    0.983
0.710    0.988
0.715    0.984
0.720    0.987
0.725    0.993
0.730    0.993
0.735    0.994
0.740    0.988
0.745    0.980
0.750    0.982
0.755    0.984
0.760    0.969
0.765    0.993
0.770    0.984
0.775    0.983
0.780    0.976
0.785    0.987
0.790    0.977
0.795    0.981
0.800    0.977
0.805    0.982
0.810    0.989
0.815    0.980
0.820    0.980
0.825    0.983
0.830    0.977
0.835    0.999
0.840    0.989
0.845    1.008
0.850    0.960
0.855    0.974
0.860    0.979
0.865    0.990
0.870    0.986
0.875    0.973
0.880    0.978
0.885    0.988
0.890    0.965
0.895    0.963
0.900    0.953
0.905    0.933
0.910    0.985
0.915    0.989
0.920    0.928
0.925    0.992
0.930    1.070
0.935    1.152
0.940    0.943
0.945    0.926
0.950    1.001
0.955    1.026
0.960    1.043
0.965    1.032
0.970    1.051
0.975    1.072
0.980    1.015
0.985    0.917
0.990    0.906
0.995    0.972
1.000    1.082
1.005    0.992
1.010    1.013
1.015    1.024
1.020    1.034
1.025    1.026
1.030    1.001
1.035    0.878
1.040    0.915
1.045    0.950
1.050    0.884
1.055    0.837
1.060    0.853
1.065    0.882
1.070    0.863
1.075    0.909
1.080    0.929
1.085    0.951
1.090    1.007
1.095    1.077
1.100    1.060
1.105    1.045
1.110    1.024
1.115    0.954
1.120    0.855
1.125    0.989
1.130    0.939
1.135    0.854
1.140    0.840
1.145    0.846
1.150    0.836
1.155    0.825
1.160    0.817
1.165    0.882
1.170    0.862
1.175    0.813
1.180    0.922
1.185    0.941
1.190    0.912
1.195    0.868
1.200    0.908
1.205    0.914
1.210    0.816
1.215    0.888
1.220    0.941
1.225    0.816
1.230    0.766
1.235    0.748
1.240    0.767
1.245    0.815
1.250    0.882
1.255    0.843
1.260    0.893
1.265    1.104
1.270    1.040
1.275    0.922
1.280    0.904
1.285    0.943
1.290    1.044
1.295    0.967
1.300    0.879
1.305    0.854
1.310    0.868
1.315    0.886
1.460    0.912
1.465    0.861
1.470    0.797
1.475    0.808
1.480    0.840
1.485    0.872
1.490    0.908
1.495    0.943
1.500    0.975
1.505    1.008
1.510    1.042
1.515    1.078
1.520    1.110
1.525    1.144
1.530    1.144
1.535    0.986
1.540    0.830
1.545    0.721
1.550    0.693
1.555    0.903
1.560    1.023
1.565    0.848
1.570    0.722
1.575    0.734
1.580    0.776
1.585    0.942
1.590    1.050
1.595    0.943
1.600    0.853
1.605    0.838
1.610    0.845
1.615    0.940
1.620    1.000
1.625    0.881
1.630    0.766
1.635    0.772
1.640    0.790
1.645    0.895
1.650    1.000
1.655    1.058
1.660    1.100
1.665    1.048
1.670    0.986
1.675    0.962
1.680    0.937
1.685    0.890
1.690    0.845
1.695    0.793
1.700    0.748
1.705    0.754
1.710    0.786
1.715    0.818
1.720    0.848
1.725    0.912
1.730    0.994
1.735    0.970
1.740    0.846
1.745    0.773
1.750    0.795
1.755    0.794
1.760    0.773
1.765    0.805
1.770    0.914
1.775    0.982
1.920    1.041
1.925    1.046
1.930    1.034
1.935    1.003
1.940    0.971
1.945    0.938
1.950    0.926
1.955    0.962
1.960    1.003
1.965    1.045
1.970    1.058
1.975    0.907
1.980    0.781
1.985    0.820
1.990    0.863
1.995    0.905
2.000    0.945
2.005    0.988
2.010    1.027
2.015    1.069
2.020    1.104
2.025    1.078
2.030    1.042
2.035    1.011
2.040    0.976
2.045    0.953
2.050    0.932
2.055    0.910
2.060    0.883
2.065    0.863
2.070    0.846
2.075    1.028
2.080    1.182
2.085    1.054
2.090    0.911
2.095    0.928
2.100    0.960
2.105    0.988
2.110    1.020
2.115    1.053
2.120    1.065

