Asteroid designations ( Number, Name, Temporary designation): 461, Saskia,  1900FP, 1900FP, 1917 XE, J17X00E, 1924 DB, J24D00B, 1935 CT, J35C00T
Observation was done on (UT) (format YYYY-MM-DD-hh): 2012 - 02 - 19 - 02:00
Observation was made by : Fornasier Sonia E-mail; sonia.fornasier@obspm.fr
At observatory with UAI code: 950
Obsv. comments: uploaded by Simon Anghel
The spectrum was published in the article: http://adsabs.harvard.edu/abs/2016Icar..269....1F
The normalization of this spectrum was made for the wavelength: 0.550 microns.
Original name of the file was: 461 Saskia
Wavelength[um]	Reflectance	sigma(optional)
0.4400000 0.93458
0.4450000 0.94536
0.4500000 0.94824
0.4550000 0.95255
0.4600000 0.95974
0.4650000 0.96405
0.4700000 0.96909
0.4750000 0.96765
0.4800000 0.96621
0.4850000 0.97196
0.4900000 0.97699
0.4950000 0.97628
0.5000000 0.98490
0.5050000 0.98634
0.5100000 0.98418
0.5150000 0.98706
0.5200000 0.99209
0.5250000 0.98778
0.5300000 0.98850
0.5350000 0.99497
0.5400000 0.99856
0.5450000 0.99281
0.5500000 1.00000
0.5550000 1.00144
0.5600000 1.00575
0.5650000 1.00791
0.5700000 1.00791
0.5750000 1.00288
0.5800000 1.00647
0.5850000 1.00935
0.5900000 1.00575
0.5950000 1.01006
0.6000000 1.00791
0.6050000 1.01078
0.6100000 1.00935
0.6150000 1.01078
0.6200000 1.01006
0.6250000 1.00863
0.6300000 1.00791
0.6350000 1.01582
0.6400000 1.01366
0.6450000 1.01653
0.6500000 1.01438
0.6550000 1.01582
0.6600000 1.01582
0.6650000 1.01725
0.6700000 1.02085
0.6750000 1.02157
0.6800000 1.02157
0.6850000 1.02372
0.6900000 1.02372
0.6950000 1.02660
0.7000000 1.02876
0.7050000 1.02660
0.7100000 1.03163
0.7150000 1.03163
0.7200000 1.03163
0.7250000 1.03163
0.7300000 1.03666
0.7350000 1.03451
0.7400000 1.03666
0.7450000 1.03738
0.7500000 1.03738
0.7550000 1.04026
0.7600000 1.03738
0.7650000 1.04026
0.7700000 1.03954
0.7750000 1.04242
0.7800000 1.04457
0.7850000 1.04889
0.7900000 1.05032
0.7950000 1.04889
0.8000000 1.05320
0.8050000 1.05320
0.8100000 1.05607
0.8150000 1.05607
0.8200000 1.06039
0.8250000 1.05967
0.8300000 1.05823
0.8350000 1.06542
0.8400000 1.05751
0.8450000 1.05823
0.8500000 1.06111
0.8550000 1.06542
0.8600000 1.06398
0.8650000 1.06470
0.8700000 1.06614
0.8750000 1.06542
0.8800000 1.06398
0.8850000 1.06614
0.8900000 1.06686
0.8950000 1.07405
0.9000000 1.07117
0.9050000 1.08196
0.9100000 1.07980
0.9150000 1.08483
0.9200000 1.08052
0.9250000 1.07117
0.9300000 1.07477
0.9350000 1.08052
0.9400000 1.08196
0.9450000 1.08699
0.9500000 1.09274
0.9550000 1.09274
0.9600000 1.08843
0.9650000 1.08699
0.9700000 1.08699
0.9750000 1.08699
0.9800000 1.08699
0.9850000 1.08771
0.9900000 1.08843
0.9950000 1.09274
1.0000000 1.08986
1.0050000 1.08986
1.0100000 1.09705
1.0150000 1.09418
1.0200000 1.09274
1.0250000 1.09849
1.0300000 1.10352
1.0350000 1.10280
1.0400000 1.10280
1.0450000 1.10280
1.0500000 1.10640
1.0550000 1.10855
1.0600000 1.10855
1.0650000 1.10712
1.0700000 1.10280
1.0750000 1.10280
1.0800000 1.10640
1.0850000 1.10496
1.0900000 1.09777
1.0950000 1.10352
1.1000000 1.10855
1.1050000 1.10424
1.1100000 1.10352
1.1150000 1.10855
1.1200000 1.10784
1.1250000 1.11359
1.1300000 1.12006
1.1350000 1.12437
1.1400000 1.12437
1.1450000 1.12797
1.1500000 1.12940
1.1550000 1.12940
1.1600000 1.12509
1.1650000 1.12437
1.1700000 1.12437
1.1750000 1.12365
1.1800000 1.12940
1.1850000 1.13084
1.1900000 1.13515
1.1950000 1.13444
1.2000000 1.13444
1.2050000 1.13444
1.2100000 1.12940
1.2150000 1.12940
1.2200000 1.12940
1.2250000 1.13659
1.2300000 1.14234
1.2350000 1.14522
1.2400000 1.14522
1.2450000 1.14378
1.2500000 1.14019
1.2550000 1.13659
1.2600000 1.13515
1.2650000 1.13444
1.2700000 1.13515
1.2750000 1.14019
1.2800000 1.14594
1.2850000 1.15313
1.2900000 1.14809
1.2950000 1.14522
1.3000000 1.14450
1.3050000 1.13731
1.3100000 1.13444
1.3150000 1.13444
1.3200000 1.13444
1.3250000 1.13515
1.3300000 1.14234
1.3350000 1.15097
1.3400000 1.15169
1.3450000 1.15600
1.3500000 1.15600
1.3550000 1.15600
1.3600000 1.16104
1.3650000 1.16319
1.3700000 1.16679
1.3750000 1.17398
1.3800000 1.17829
1.3850000 1.18476
1.3900000 1.19123
1.3950000 1.19842
1.4000000 1.19770
1.4050000 1.20273
1.4100000 1.19770
1.4150000 1.19195
1.4200000 1.19626
1.4250000 1.19770
1.4300000 1.20129
1.4350000 1.20345
1.4400000 1.19842
1.4450000 1.20345
1.4500000 1.21208
1.4550000 1.21639
1.4600000 1.21352
1.4650000 1.21639
1.4700000 1.21927
1.4750000 1.22070
1.4800000 1.22430
1.4850000 1.22933
1.4900000 1.23508
1.4950000 1.23508
1.5000000 1.22933
1.5050000 1.22717
1.5100000 1.22214
1.5150000 1.22502
1.5200000 1.22430
1.5250000 1.23005
1.5300000 1.23221
1.5350000 1.22933
1.5400000 1.22933
1.5450000 1.23221
1.5500000 1.23508
1.5550000 1.23868
1.5600000 1.24012
1.5650000 1.23868
1.5700000 1.23436
1.5750000 1.23508
1.5800000 1.23436
1.5850000 1.23796
1.5900000 1.24227
1.5950000 1.23940
1.6000000 1.23508
1.6050000 1.23508
1.6100000 1.23436
1.6150000 1.23940
1.6200000 1.24012
1.6250000 1.24012
1.6300000 1.23940
1.6350000 1.24587
1.6400000 1.24515
1.6450000 1.25018
1.6500000 1.25090
1.6550000 1.25090
1.6600000 1.25018
1.6650000 1.25018
1.6700000 1.24515
1.6750000 1.24515
1.6800000 1.24515
1.6850000 1.24946
1.6900000 1.25018
1.6950000 1.25090
1.7000000 1.25018
1.7050000 1.25377
1.7100000 1.26096
1.7150000 1.26384
1.7200000 1.26671
1.7250000 1.26312
1.7300000 1.25521
1.7350000 1.25665
1.7400000 1.25593
1.7450000 1.25593
1.7500000 1.25593
1.7550000 1.25953
1.7600000 1.26959
1.7650000 1.27175
1.7700000 1.26815
1.7750000 1.26096
1.7800000 1.25521
1.7850000 1.25090
1.7900000 1.25593
1.7950000 1.26168
1.8000000 1.25809
1.8050000 1.25090
1.8100000 1.25881
1.8150000 1.26384
1.8200000 1.26671
1.8250000 1.26671
1.8300000 1.26671
1.8350000 1.26671
1.8400000 1.26743
1.8450000 1.27175
1.8500000 1.27175
1.8550000 1.27175
1.8600000 1.27247
1.8650000 1.26528
1.8700000 1.27175
1.8750000 1.27750
1.8800000 1.28253
1.8850000 1.28253
1.8900000 1.28756
1.8950000 1.29619
1.9000000 1.30769
1.9050000 1.31488
1.9100000 1.31919
1.9150000 1.31344
1.9200000 1.31416
1.9250000 1.31416
1.9300000 1.31416
1.9350000 1.31057
1.9400000 1.30841
1.9450000 1.31632
1.9500000 1.31919
1.9550000 1.32063
1.9600000 1.32135
1.9650000 1.31704
1.9700000 1.31344
1.9750000 1.31704
1.9800000 1.31919
1.9850000 1.32495
1.9900000 1.32495
1.9950000 1.32854
2.0000000 1.33573
2.0050000 1.33501
2.0100000 1.33501
2.0150000 1.33501
2.0200000 1.34004
2.0250000 1.34292
2.0300000 1.34579
2.0350000 1.34579
2.0400000 1.34508
2.0450000 1.35083
2.0500000 1.35945
2.0550000 1.35442
2.0600000 1.35083
2.0650000 1.34508
2.0700000 1.34292
2.0750000 1.35226
2.0800000 1.35945
2.0850000 1.35586
2.0900000 1.35586
2.0950000 1.35586
2.1000000 1.35586
2.1050000 1.35586
2.1100000 1.35586
2.1150000 1.35586
2.1200000 1.35586
2.1250000 1.35586
2.1300000 1.35802
2.1350000 1.36161
2.1400000 1.36161
2.1450000 1.35802
2.1500000 1.35658
2.1550000 1.35658
2.1600000 1.35873
2.1650000 1.36161
2.1700000 1.36736
2.1750000 1.36017
2.1800000 1.35586
2.1850000 1.35586
2.1900000 1.35945
2.1950000 1.36592
2.2000000 1.36520
2.2050000 1.36089
2.2100000 1.35586
2.2150000 1.35586
2.2200000 1.36161
2.2250000 1.36520
2.2300000 1.36664
2.2350000 1.36161
2.2400000 1.36233
2.2450000 1.35586
2.2500000 1.36089
2.2550000 1.36520
2.2600000 1.36664
2.2650000 1.36736
2.2700000 1.36017
2.2750000 1.35658
2.2800000 1.35658
2.2850000 1.35730
2.2900000 1.36089
2.2950000 1.36736
2.3000000 1.36664
2.3050000 1.36808
2.3100000 1.36017
2.3150000 1.35586
2.3200000 1.35011
2.3250000 1.35442
2.3300000 1.35586
2.3350000 1.35586
2.3400000 1.35586
2.3450000 1.35658
2.3500000 1.35586
2.3550000 1.35586
2.3600000 1.35442
2.3650000 1.35730
2.3700000 1.36377
2.3750000 1.37024
2.3800000 1.36592
2.3850000 1.36017
2.3900000 1.35586
2.3950000 1.35586
2.4000000 1.34867
