Asteroid designations ( Number, Name, Temporary designation): 2228, SoyuzApollo,  1977 OH, J77O00H, 1933 SK1, J33S01K, 1952 DT1, J52D01T, 1963 DD, J63D00D, 1973 YN3, J73Y03N
Observation was done on (UT) (format YYYY-MM-DD-hh): 2012 - 12 - 19 - 04:41
Observation was made by : Fornasier Sonia E-mail; sonia.fornasier@obspm.fr
At observatory with UAI code: 950
Obsv. comments: uploaded by Simon Anghel
The spectrum was published in the article: http://adsabs.harvard.edu/abs/2016Icar..269....1F
The normalization of this spectrum was made for the wavelength: 0.550 microns.
Original name of the file was: 2228_Soyuz-Apollo
Wavelength[um]	Reflectance	sigma(optional)
0.4350000 0.91152
0.4400000 0.90123
0.4450000 0.92798
0.4500000 0.94136
0.4550000 0.93930
0.4600000 0.96091
0.4650000 0.95062
0.4700000 0.95062
0.4750000 0.96091
0.4800000 0.97531
0.4850000 0.97222
0.4900000 0.97942
0.4950000 0.96296
0.5000000 0.96399
0.5050000 0.97942
0.5100000 0.96708
0.5150000 0.95885
0.5200000 0.95679
0.5250000 0.98148
0.5300000 1.00206
0.5350000 0.99897
0.5400000 0.99486
0.5450000 0.99897
0.5500000 1.00000
0.5550000 1.00206
0.5600000 1.00926
0.5650000 1.01235
0.5700000 1.00617
0.5750000 1.02469
0.5800000 1.01646
0.5850000 1.01543
0.5900000 1.04218
0.5950000 1.01646
0.6000000 1.02572
0.6050000 1.02469
0.6100000 1.02058
0.6150000 1.02263
0.6200000 1.02778
0.6250000 1.02881
0.6300000 1.04115
0.6350000 1.03086
0.6400000 1.01852
0.6450000 1.03086
0.6500000 1.02572
0.6550000 1.03189
0.6600000 1.04115
0.6650000 1.03189
0.6700000 1.03292
0.6750000 1.03292
0.6800000 1.02469
0.6850000 1.03909
0.6900000 1.04012
0.6950000 1.03704
0.7000000 1.03704
0.7050000 1.04321
0.7100000 1.02675
0.7150000 1.04630
0.7200000 1.03498
0.7250000 1.05350
0.7300000 1.07305
0.7350000 1.06070
0.7400000 1.05144
0.7450000 1.03601
0.7500000 1.03189
0.7550000 1.03189
0.7600000 1.03909
0.7650000 1.08128
0.7700000 1.05761
0.7750000 1.06276
0.7800000 1.05041
0.7850000 1.04733
0.7900000 1.04218
0.7950000 1.03807
0.8000000 1.05453
0.8050000 1.05864
0.8100000 1.03909
0.8150000 1.04115
0.8200000 1.02984
0.8250000 1.02778
0.8300000 1.04835
0.8350000 1.04630
0.8400000 1.05453
0.8450000 1.05350
0.8500000 1.04012
0.8550000 1.02572
0.8600000 1.02572
0.8650000 1.02984
0.8700000 1.03704
0.8750000 1.03807
0.8800000 1.01955
0.8850000 1.02572
0.8900000 1.06070
0.8950000 1.03498
0.9000000 1.03704
0.9050000 1.02160
0.9100000 0.99691
0.9150000 1.00926
