Asteroid designations ( Number, Name, Temporary designation): 2009, Voloshina,  1968 UL, J68U00L, 1926 FF, J26F00F, 1929 TO, J29T00O, 1957 WF2, J57W02F, 1959 EC, J59E00C, 1970 EL1, J70E01L, 1973 SU3, J73S03U, 1973 SP6, J73S06P
Observation was done on (UT) (format YYYY-MM-DD-hh): 2012 - 12 - 18 - 00:06
Observation was made by : Fornasier Sonia E-mail; sonia.fornasier@obspm.fr
At observatory with UAI code: 950
Obsv. comments: uploaded by Simon Anghel
The spectrum was published in the article: http://adsabs.harvard.edu/abs/2016Icar..269....1F
The normalization of this spectrum was made for the wavelength: 1.250 microns.
Original name of the file was: 2009 Voloshina
Wavelength[um]	Reflectance	sigma(optional)
0.8000000 0.90991
0.8050000 0.92893
0.8100000 0.93093
0.8150000 0.93994
0.8200000 0.93994
0.8250000 0.95195
0.8300000 0.92292
0.8350000 0.91992
0.8400000 0.92392
0.8450000 0.93493
0.8500000 0.94094
0.8550000 0.95495
0.8600000 0.94595
0.8650000 0.93493
0.8700000 0.93594
0.8750000 0.93694
0.8800000 0.92893
0.8850000 0.93594
0.8900000 0.95996
0.8950000 0.96296
0.9000000 0.95095
0.9050000 0.93694
0.9100000 0.94394
0.9150000 0.94795
0.9200000 0.94795
0.9250000 0.95696
0.9300000 0.95796
0.9350000 0.94294
0.9400000 0.95495
0.9450000 0.95996
0.9500000 0.93694
0.9550000 0.93994
0.9600000 0.94895
0.9650000 0.96396
0.9700000 0.94995
0.9750000 0.95495
0.9800000 0.94795
0.9850000 0.92292
0.9900000 0.94294
0.9950000 0.93794
1.0000000 0.93694
1.0050000 0.95696
1.0100000 0.94494
1.0150000 0.95495
1.0200000 0.95095
1.0250000 0.94695
1.0300000 0.95796
1.0350000 0.94394
1.0400000 0.93093
1.0450000 0.94094
1.0500000 0.94695
1.0550000 0.95195
1.0600000 0.96496
1.0650000 0.95796
1.0700000 0.97297
1.0750000 0.97297
1.0800000 0.95796
1.0850000 0.94995
1.0900000 0.95495
1.0950000 0.94595
1.1000000 0.95596
1.1050000 0.95295
1.1100000 0.95796
1.1150000 0.97197
1.1200000 0.98799
1.1250000 0.97297
1.1300000 0.96697
1.1350000 0.95495
1.1400000 0.95195
1.1450000 0.95295
1.1500000 0.95696
1.1550000 0.94995
1.1600000 0.94695
1.1650000 0.96496
1.1700000 0.97297
1.1750000 0.97598
1.1800000 0.96597
1.1850000 0.96496
1.1900000 0.97297
1.1950000 0.97598
1.2000000 0.97698
1.2050000 0.97598
1.2100000 0.98599
1.2150000 0.97998
1.2200000 0.98699
1.2250000 0.98899
1.2300000 0.98799
1.2350000 0.98699
1.2400000 0.98799
1.2450000 0.98799
1.2500000 1.00000
1.2550000 1.01001
1.2600000 0.99900
1.2650000 0.98799
1.2700000 0.99600
1.2750000 1.00901
1.2800000 0.99700
1.2850000 0.99399
1.2900000 0.99099
1.2950000 0.99199
1.3000000 0.99099
1.3050000 0.97998
1.3100000 0.98098
1.3150000 0.99399
1.3200000 1.00200
1.3250000 0.98599
1.3300000 0.99499
1.3350000 1.00901
1.3400000 1.00601
1.3450000 1.00501
1.3500000 1.01001
1.3550000 1.01602
1.3600000 1.01802
1.3650000 1.01602
1.3700000 1.01301
1.3750000 1.01301
1.3800000 1.01201
1.3850000 1.01001
1.3900000 1.01001
1.3950000 1.01301
1.4000000 1.01802
1.4050000 1.02002
1.4100000 1.02002
1.4150000 1.01902
1.4200000 1.02102
1.4250000 1.02302
1.4300000 1.02102
1.4350000 1.02803
1.4400000 1.02703
1.4450000 1.02603
1.4500000 1.03403
1.4550000 1.03303
1.4600000 1.03604
1.4650000 1.03003
1.4700000 1.02302
1.4750000 1.01702
1.4800000 1.03403
1.4850000 1.03904
1.4900000 1.03904
1.4950000 1.02903
1.5000000 1.02803
1.5050000 1.02703
1.5100000 1.04004
1.5150000 1.02302
1.5200000 1.03003
1.5250000 1.04204
1.5300000 1.06106
1.5350000 1.04404
1.5400000 1.02903
1.5450000 1.03303
1.5500000 1.03804
1.5550000 1.04705
1.5600000 1.06306
1.5650000 1.07007
1.5700000 1.07508
1.5750000 1.06907
1.5800000 1.05706
1.5850000 1.06206
1.5900000 1.05606
1.5950000 1.06306
1.6000000 1.08308
1.6050000 1.06406
1.6100000 1.05305
1.6150000 1.06206
1.6200000 1.06507
1.6250000 1.07207
1.6300000 1.07708
1.6350000 1.08208
1.6400000 1.09610
1.6450000 1.09209
1.6500000 1.08909
1.6550000 1.09309
1.6600000 1.09109
1.6650000 1.09710
1.6700000 1.11311
1.6750000 1.11311
1.6800000 1.12012
1.6850000 1.11111
1.6900000 1.09810
1.6950000 1.09209
1.7000000 1.09209
1.7050000 1.09810
1.7100000 1.10911
1.7150000 1.11311
1.7200000 1.10511
1.7250000 1.10210
1.7300000 1.08408
1.7350000 1.07407
1.7400000 1.09309
1.7450000 1.09409
1.7500000 1.10110
1.7550000 1.10010
1.7600000 1.11912
1.7650000 1.11411
1.7700000 1.11411
1.7750000 1.10811
1.7800000 1.10811
1.7850000 1.10811
1.7900000 1.10811
1.7950000 1.10811
1.8000000 1.10811
1.8050000 1.10811
1.8100000 1.10911
1.8150000 1.10811
1.8200000 1.10611
1.8250000 1.09810
1.8300000 1.10110
1.8350000 1.10110
1.8400000 1.10811
1.8450000 1.11011
1.8500000 1.10911
1.8550000 1.10811
1.8600000 1.10711
1.8650000 1.09009
1.8700000 1.10010
1.8750000 1.10911
1.8800000 1.11311
1.8850000 1.11011
1.8900000 1.11111
1.8950000 1.11211
1.9000000 1.12312
1.9050000 1.13113
1.9100000 1.12412
1.9150000 1.12713
1.9200000 1.12613
1.9250000 1.12412
1.9300000 1.14014
1.9350000 1.14515
1.9400000 1.15215
1.9450000 1.14715
1.9500000 1.12913
1.9550000 1.12513
1.9600000 1.12713
1.9650000 1.13013
1.9700000 1.13113
1.9750000 1.13113
1.9800000 1.13013
1.9850000 1.12813
1.9900000 1.12513
1.9950000 1.12513
2.0000000 1.13313
2.0050000 1.12112
2.0100000 1.12513
2.0150000 1.13514
2.0200000 1.15315
2.0250000 1.16116
2.0300000 1.17117
2.0350000 1.16817
2.0400000 1.14915
2.0450000 1.15716
2.0500000 1.15415
2.0550000 1.15516
2.0600000 1.15716
2.0650000 1.15215
2.0700000 1.15315
2.0750000 1.15315
2.0800000 1.15015
2.0850000 1.14214
2.0900000 1.15015
2.0950000 1.14414
2.1000000 1.15315
2.1050000 1.16416
2.1100000 1.16416
2.1150000 1.16717
2.1200000 1.17217
2.1250000 1.16717
2.1300000 1.16617
2.1350000 1.15315
2.1400000 1.14114
2.1450000 1.14715
2.1500000 1.14815
2.1550000 1.13714
2.1600000 1.12012
2.1650000 1.12012
2.1700000 1.13113
2.1750000 1.13413
2.1800000 1.12312
2.1850000 1.12112
2.1900000 1.12312
2.1950000 1.11211
2.2000000 1.12312
