Asteroid designations ( Number, Name, Temporary designation): 621, Werdandi,  1906WJ, 1906WJ, 1952 BO, J52B00O
Observation was done on (UT) (format YYYY-MM-DD-hh): 2012 - 02 - 19 - 22:24
Observation was made by : Fornasier Sonia E-mail; sonia.fornasier@obspm.fr
At observatory with UAI code: 950
Obsv. comments: uploaded by Simon Anghel
The spectrum was published in the article: http://adsabs.harvard.edu/abs/2016Icar..269....1F
The normalization of this spectrum was made for the wavelength: 0.550 microns.
Original name of the file was: 621 Werdandi.csv
Wavelength[um]	Reflectance	sigma(optional)
0.4950000 0.99601
0.5000000 0.98305
0.5050000 0.99601
0.5100000 0.98903
0.5150000 0.99003
0.5200000 1.01795
0.5250000 1.00399
0.5300000 0.99302
0.5350000 0.99302
0.5400000 0.99501
0.5450000 0.98804
0.5500000 1.00000
0.5550000 0.98604
0.5600000 0.99900
0.5650000 0.99900
0.5700000 0.98903
0.5750000 0.98106
0.5800000 0.98604
0.5850000 0.97807
0.5900000 0.98504
0.5950000 0.99003
0.6000000 0.98305
0.6050000 0.96311
0.6100000 0.96411
0.6150000 0.98903
0.6200000 0.99302
0.6250000 0.98704
0.6300000 0.98205
0.6350000 0.98006
0.6400000 0.98604
0.6450000 0.97208
0.6500000 0.98305
0.6550000 0.97208
0.6600000 0.98305
0.6650000 0.97707
0.6700000 0.98604
0.6750000 0.97707
0.6800000 0.97906
0.6850000 0.95613
0.6900000 0.97208
0.6950000 0.98504
0.7000000 0.97009
0.7050000 0.97507
0.7100000 0.97109
0.7150000 0.96211
0.7200000 0.96909
0.7250000 0.97408
0.7300000 0.98504
0.7350000 0.97906
0.7400000 0.97906
0.7450000 0.96510
0.7500000 0.97507
0.7550000 0.97807
0.7600000 0.98006
0.7650000 1.00199
0.7700000 1.00798
0.7750000 0.97507
0.7800000 0.95314
0.7850000 0.96311
0.7900000 0.98006
0.7950000 0.96411
0.8000000 0.97009
0.8050000 0.94516
0.8100000 0.95813
0.8150000 0.96411
0.8200000 0.96012
0.8250000 0.96112
0.8300000 0.96710
0.8350000 0.93918
0.8400000 0.92223
0.8450000 0.94317
0.8500000 0.93420
0.8550000 0.99801
0.8600000 1.01795
0.8650000 0.96710
0.8700000 0.95613
0.8750000 0.95613
0.8800000 0.94217
0.8850000 0.96012
0.8900000 0.97807
0.8950000 0.98305
0.9000000 0.96610
0.9050000 0.95912
0.9100000 0.94516
0.9150000 0.94915
0.9200000 0.95613
0.9250000 0.95813
0.9300000 0.97208
0.9350000 0.95912
0.9400000 0.95613
0.9450000 0.94915
0.9500000 0.96810
0.9550000 0.97109
0.9600000 0.97109
0.9650000 0.97208
0.9700000 0.95713
0.9750000 0.94716
0.9800000 0.95513
0.9850000 0.95414
0.9900000 0.96411
0.9950000 0.96411
1.0000000 0.97109
1.0050000 0.97109
1.0100000 0.97109
1.0150000 0.97607
1.0200000 0.95414
1.0250000 0.95513
1.0300000 0.97607
1.0350000 0.97807
1.0400000 0.97208
1.0450000 0.96012
1.0500000 0.95613
1.0550000 0.96012
1.0600000 0.96411
1.0650000 0.97009
1.0700000 0.97906
1.0750000 0.97009
1.0800000 0.97707
1.0850000 0.98903
1.0900000 0.99801
1.0950000 0.99801
1.1000000 0.99103
1.1050000 0.97807
1.1100000 0.96610
1.1150000 0.96510
1.1200000 0.97707
1.1250000 0.99003
1.1300000 0.99003
1.1350000 0.98504
1.1400000 0.98903
1.1450000 1.00000
1.1500000 0.99900
1.1550000 0.99501
1.1600000 0.99302
1.1650000 0.99302
1.1700000 0.99302
1.1750000 0.99501
1.1800000 1.00100
1.1850000 1.00000
1.1900000 0.98704
1.1950000 0.98205
1.2000000 0.98504
1.2050000 0.99103
1.2100000 1.00199
1.2150000 0.99501
1.2200000 0.98504
1.2250000 0.99302
1.2300000 0.99900
1.2350000 1.00997
1.2400000 1.02193
1.2450000 1.01695
1.2500000 1.01496
1.2550000 1.01795
1.2600000 1.02193
1.2650000 1.02193
1.2700000 1.02193
1.2750000 1.02094
1.2800000 1.01496
1.2850000 1.00798
1.2900000 1.00698
1.2950000 1.02094
1.3000000 1.02991
1.3050000 1.02592
1.3100000 1.02193
1.3150000 1.02193
1.3200000 1.01994
1.3250000 1.01695
1.3300000 1.01396
1.3350000 1.02193
1.3400000 1.03390
1.3450000 1.03789
1.3500000 1.03589
1.3550000 1.04586
1.3600000 1.05882
1.3650000 1.06082
1.3700000 1.06580
1.3750000 1.06580
1.3800000 1.07079
1.3850000 1.08275
1.3900000 1.08574
1.3950000 1.08076
1.4000000 1.07577
1.4050000 1.07278
1.4100000 1.07079
1.4150000 1.06979
1.4200000 1.07876
1.4250000 1.07876
1.4300000 1.06580
1.4350000 1.06481
1.4400000 1.07378
1.4450000 1.07178
1.4500000 1.07378
1.4550000 1.07777
1.4600000 1.08175
1.4650000 1.06580
1.4700000 1.04387
1.4750000 1.03689
1.4800000 1.03589
1.4850000 1.04287
1.4900000 1.05184
1.4950000 1.04686
1.5000000 1.04387
1.5050000 1.04985
1.5100000 1.05184
1.5150000 1.06381
1.5200000 1.07378
1.5250000 1.07278
1.5300000 1.07178
1.5350000 1.06481
1.5400000 1.06082
1.5450000 1.05882
1.5500000 1.05783
1.5550000 1.05882
1.5600000 1.05982
1.5650000 1.05982
1.5700000 1.05783
1.5750000 1.04885
1.5800000 1.04387
1.5850000 1.04885
1.5900000 1.06082
1.5950000 1.07976
1.6000000 1.08475
1.6050000 1.08774
1.6100000 1.08574
1.6150000 1.08076
1.6200000 1.07677
1.6250000 1.07278
1.6300000 1.06879
1.6350000 1.06580
1.6400000 1.06281
1.6450000 1.08175
1.6500000 1.08774
1.6550000 1.08774
1.6600000 1.08076
1.6650000 1.06879
1.6700000 1.06680
1.6750000 1.07976
1.6800000 1.09172
1.6850000 1.09671
1.6900000 1.08973
1.6950000 1.07777
1.7000000 1.06580
1.7050000 1.07777
1.7100000 1.08973
1.7150000 1.08873
1.7200000 1.07777
1.7250000 1.09671
1.7300000 1.11466
1.7350000 1.12463
1.7400000 1.12463
1.7450000 1.12463
1.7500000 1.11864
1.7550000 1.11765
1.7600000 1.12961
1.7650000 1.12263
1.7700000 1.11067
1.7750000 1.10169
1.7800000 1.10568
1.7850000 1.11466
1.7900000 1.13260
1.7950000 1.14656
1.8000000 1.15852
1.8050000 1.16849
1.8100000 1.17149
1.8150000 1.15753
1.8200000 1.12463
1.8250000 1.09571
1.8300000 1.11665
1.8350000 1.13958
1.8400000 1.16451
1.8450000 1.17547
1.8500000 1.16152
1.8550000 1.14257
1.8600000 1.15653
1.8650000 1.17846
1.8700000 1.16052
1.8750000 1.13161
1.8800000 1.14955
1.8850000 1.17846
1.8900000 1.20439
1.8950000 1.22233
1.9000000 1.20339
1.9050000 1.16650
1.9100000 1.16451
1.9150000 1.17647
1.9200000 1.16949
1.9250000 1.16451
1.9300000 1.17647
1.9350000 1.20140
1.9400000 1.20239
1.9450000 1.19043
1.9500000 1.18345
1.9550000 1.18345
1.9600000 1.17747
1.9650000 1.15653
1.9700000 1.15254
1.9750000 1.15354
1.9800000 1.15155
1.9850000 1.13161
1.9900000 1.13559
1.9950000 1.16650
2.0000000 1.17647
2.0050000 1.16849
2.0100000 1.16949
2.0150000 1.20439
2.0200000 1.22034
2.0250000 1.21137
2.0300000 1.20040
2.0350000 1.18843
2.0400000 1.17547
2.0450000 1.17547
2.0500000 1.17348
2.0550000 1.17149
2.0600000 1.17846
2.0650000 1.19043
2.0700000 1.19641
2.0750000 1.18943
2.0800000 1.18744
2.0850000 1.18146
2.0900000 1.16849
2.0950000 1.13759
2.1000000 1.12463
2.1050000 1.15952
2.1100000 1.16251
2.1150000 1.12164
2.1200000 1.12064
2.1250000 1.16949
2.1300000 1.19741
2.1350000 1.18345
2.1400000 1.18843
2.1450000 1.20638
2.1500000 1.20638
2.1550000 1.19541
2.1600000 1.18943
2.1650000 1.18345
2.1700000 1.18046
2.1750000 1.17547
2.1800000 1.16052
2.1850000 1.13260
2.1900000 1.15952
2.1950000 1.20339
2.2000000 1.19940
2.2050000 1.18445
2.2100000 1.17747
2.2150000 1.17547
2.2200000 1.19940
2.2250000 1.21635
2.2300000 1.19940
2.2350000 1.17846
2.2400000 1.16650
2.2450000 1.16251
2.2500000 1.17846
2.2550000 1.19043
2.2600000 1.19043
2.2650000 1.19442
2.2700000 1.19143
2.2750000 1.16849
2.2800000 1.14257
2.2850000 1.13759
2.2900000 1.14357
2.2950000 1.15852
2.3000000 1.17448
2.3050000 1.17547
2.3100000 1.17547
2.3150000 1.15653
2.3200000 1.14756
2.3250000 1.16750
2.3300000 1.17946
2.3350000 1.18146
2.3400000 1.16451
2.3450000 1.13460
2.3500000 1.11765
2.3550000 1.11665
2.3600000 1.12662
2.3650000 1.14556
2.3700000 1.15753
2.3750000 1.16251
2.3800000 1.12463
2.3850000 1.08873
